Subject,TrialProc,Trial,Condition,RT,ACC,Response,TargetArrowDirection,SessionDate,SessionTime
14000,practice,1,incongruent,1086,1,left,left,08-30-2017,10:30:25
14000,practice,2,incongruent,863,1,left,left,08-30-2017,10:30:25
14000,practice,3,congruent,488,1,right,right,08-30-2017,10:30:25
14000,practice,4,incongruent,588,1,right,right,08-30-2017,10:30:25
14000,practice,5,congruent,581,1,right,right,08-30-2017,10:30:25
14000,practice,6,incongruent,544,1,right,right,08-30-2017,10:30:25
14000,practice,7,incongruent,508,1,right,right,08-30-2017,10:30:25
14000,practice,8,congruent,488,1,left,left,08-30-2017,10:30:25
14000,practice,9,congruent,620,1,left,left,08-30-2017,10:30:25
14000,practice,10,congruent,506,1,right,right,08-30-2017,10:30:25
14000,practice,11,congruent,432,1,left,left,08-30-2017,10:30:25
14000,practice,12,incongruent,580,1,left,left,08-30-2017,10:30:25
14000,real,1,incongruent,577,1,right,right,08-30-2017,10:30:25
14000,real,2,incongruent,495,1,left,left,08-30-2017,10:30:25
14000,real,3,incongruent,493,1,left,left,08-30-2017,10:30:25
14000,real,4,incongruent,504,1,right,right,08-30-2017,10:30:25
14000,real,5,congruent,486,1,right,right,08-30-2017,10:30:25
14000,real,6,congruent,406,1,right,right,08-30-2017,10:30:25
14000,real,7,incongruent,436,1,left,left,08-30-2017,10:30:25
14000,real,8,congruent,413,1,right,right,08-30-2017,10:30:25
14000,real,9,congruent,413,1,right,right,08-30-2017,10:30:25
14000,real,10,congruent,374,1,left,left,08-30-2017,10:30:25
14000,real,11,congruent,396,1,left,left,08-30-2017,10:30:25
14000,real,12,congruent,436,1,right,right,08-30-2017,10:30:25
14000,real,13,incongruent,506,1,right,right,08-30-2017,10:30:25
14000,real,14,incongruent,403,1,left,left,08-30-2017,10:30:25
14000,real,15,congruent,390,1,left,left,08-30-2017,10:30:25
14000,real,16,congruent,420,1,right,right,08-30-2017,10:30:25
14000,real,17,incongruent,423,1,right,right,08-30-2017,10:30:25
14000,real,18,congruent,413,1,left,left,08-30-2017,10:30:25
14000,real,19,incongruent,581,1,right,right,08-30-2017,10:30:25
14000,real,20,congruent,395,1,left,left,08-30-2017,10:30:25
14000,real,21,incongruent,487,1,right,right,08-30-2017,10:30:25
14000,real,22,congruent,370,1,left,left,08-30-2017,10:30:25
14000,real,23,congruent,498,1,left,left,08-30-2017,10:30:25
14000,real,24,congruent,424,1,right,right,08-30-2017,10:30:25
14000,real,25,congruent,363,1,left,left,08-30-2017,10:30:25
14000,real,26,incongruent,460,1,left,left,08-30-2017,10:30:25
14000,real,27,congruent,439,1,left,left,08-30-2017,10:30:25
14000,real,28,congruent,410,1,right,right,08-30-2017,10:30:25
14000,real,29,congruent,392,1,left,left,08-30-2017,10:30:25
14000,real,30,congruent,358,1,right,right,08-30-2017,10:30:25
14000,real,31,congruent,353,1,left,left,08-30-2017,10:30:25
14000,real,32,congruent,333,1,right,right,08-30-2017,10:30:25
14000,real,33,incongruent,426,1,left,left,08-30-2017,10:30:25
14000,real,34,congruent,371,1,right,right,08-30-2017,10:30:25
14000,real,35,congruent,454,1,left,left,08-30-2017,10:30:25
14000,real,36,congruent,519,1,right,right,08-30-2017,10:30:25
14000,real,37,congruent,475,1,left,left,08-30-2017,10:30:25
14000,real,38,congruent,391,1,left,left,08-30-2017,10:30:25
14000,real,39,congruent,348,1,left,left,08-30-2017,10:30:25
14000,real,40,congruent,317,1,left,left,08-30-2017,10:30:25
14000,real,41,incongruent,363,1,right,right,08-30-2017,10:30:25
14000,real,42,congruent,385,1,right,right,08-30-2017,10:30:25
14000,real,43,incongruent,455,1,left,left,08-30-2017,10:30:25
14000,real,44,incongruent,495,1,right,right,08-30-2017,10:30:25
14000,real,45,congruent,418,1,right,right,08-30-2017,10:30:25
14000,real,46,incongruent,406,1,left,left,08-30-2017,10:30:25
14000,real,47,congruent,401,1,left,left,08-30-2017,10:30:25
14000,real,48,congruent,385,1,left,left,08-30-2017,10:30:25
14000,real,49,congruent,517,1,right,right,08-30-2017,10:30:25
14000,real,50,congruent,472,1,left,left,08-30-2017,10:30:25
14000,real,51,incongruent,550,1,right,right,08-30-2017,10:30:25
14000,real,52,congruent,508,1,right,right,08-30-2017,10:30:25
14000,real,53,incongruent,500,1,right,right,08-30-2017,10:30:25
14000,real,54,incongruent,482,1,left,left,08-30-2017,10:30:25
14000,real,55,incongruent,736,1,left,left,08-30-2017,10:30:25
14000,real,56,incongruent,438,1,left,left,08-30-2017,10:30:25
14000,real,57,congruent,532,1,left,left,08-30-2017,10:30:25
14000,real,58,congruent,359,1,left,left,08-30-2017,10:30:25
14000,real,59,congruent,354,1,left,left,08-30-2017,10:30:25
14000,real,60,incongruent,494,1,right,right,08-30-2017,10:30:25
14000,real,61,congruent,428,1,right,right,08-30-2017,10:30:25
14000,real,62,congruent,399,1,right,right,08-30-2017,10:30:25
14000,real,63,congruent,376,1,right,right,08-30-2017,10:30:25
14000,real,64,congruent,381,1,right,right,08-30-2017,10:30:25
14000,real,65,congruent,374,1,right,right,08-30-2017,10:30:25
14000,real,66,congruent,375,1,right,right,08-30-2017,10:30:25
14000,real,67,incongruent,468,1,left,left,08-30-2017,10:30:25
14000,real,68,incongruent,480,1,right,right,08-30-2017,10:30:25
14000,real,69,congruent,472,1,right,right,08-30-2017,10:30:25
14000,real,70,congruent,384,1,left,left,08-30-2017,10:30:25
14000,real,71,congruent,392,1,left,left,08-30-2017,10:30:25
14000,real,72,congruent,382,1,right,right,08-30-2017,10:30:25
14000,real,73,congruent,363,1,right,right,08-30-2017,10:30:25
14000,real,74,congruent,329,1,right,right,08-30-2017,10:30:25
14000,real,75,congruent,466,1,left,left,08-30-2017,10:30:25
14000,real,76,congruent,290,1,left,left,08-30-2017,10:30:25
14000,real,77,congruent,400,1,right,right,08-30-2017,10:30:25
14000,real,78,congruent,339,1,left,left,08-30-2017,10:30:25
14000,real,79,congruent,356,1,left,left,08-30-2017,10:30:25
14000,real,80,congruent,359,1,right,right,08-30-2017,10:30:25
14000,real,81,incongruent,368,1,right,right,08-30-2017,10:30:25
14000,real,82,congruent,341,1,left,left,08-30-2017,10:30:25
14000,real,83,incongruent,414,1,left,left,08-30-2017,10:30:25
14000,real,84,congruent,337,1,left,left,08-30-2017,10:30:25
14000,real,85,incongruent,479,1,left,left,08-30-2017,10:30:25
14000,real,86,congruent,346,1,left,left,08-30-2017,10:30:25
14000,real,87,incongruent,328,0,left,right,08-30-2017,10:30:25
14000,real,88,incongruent,571,1,left,left,08-30-2017,10:30:25
14000,real,89,congruent,409,1,right,right,08-30-2017,10:30:25
14000,real,90,congruent,399,1,left,left,08-30-2017,10:30:25
14000,real,91,incongruent,346,1,right,right,08-30-2017,10:30:25
14000,real,92,congruent,411,1,right,right,08-30-2017,10:30:25
14000,real,93,congruent,403,1,right,right,08-30-2017,10:30:25
14000,real,94,congruent,396,1,right,right,08-30-2017,10:30:25
14000,real,95,incongruent,564,1,left,left,08-30-2017,10:30:25
14000,real,96,incongruent,480,1,right,right,08-30-2017,10:30:25
14000,real,97,incongruent,603,1,left,left,08-30-2017,10:30:25
14000,real,98,congruent,355,1,right,right,08-30-2017,10:30:25
14000,real,99,congruent,311,1,left,left,08-30-2017,10:30:25
14000,real,100,congruent,318,1,right,right,08-30-2017,10:30:25
14000,real,101,congruent,314,1,left,left,08-30-2017,10:30:25
14000,real,102,congruent,366,1,left,left,08-30-2017,10:30:25
14000,real,103,congruent,366,1,left,left,08-30-2017,10:30:25
14000,real,104,congruent,383,1,right,right,08-30-2017,10:30:25
14000,real,105,incongruent,722,1,right,right,08-30-2017,10:30:25
14000,real,106,incongruent,448,1,left,left,08-30-2017,10:30:25
14000,real,107,incongruent,464,1,right,right,08-30-2017,10:30:25
14000,real,108,congruent,403,1,right,right,08-30-2017,10:30:25
14000,real,109,incongruent,578,1,right,right,08-30-2017,10:30:25
14000,real,110,incongruent,453,1,left,left,08-30-2017,10:30:25
14000,real,111,incongruent,504,1,right,right,08-30-2017,10:30:25
14000,real,112,congruent,353,1,right,right,08-30-2017,10:30:25
14000,real,113,congruent,380,1,left,left,08-30-2017,10:30:25
14000,real,114,congruent,372,1,left,left,08-30-2017,10:30:25
14000,real,115,incongruent,410,1,right,right,08-30-2017,10:30:25
14000,real,116,congruent,360,1,left,left,08-30-2017,10:30:25
14000,real,117,congruent,353,1,right,right,08-30-2017,10:30:25
14000,real,118,congruent,369,1,left,left,08-30-2017,10:30:25
14000,real,119,congruent,372,1,right,right,08-30-2017,10:30:25
14000,real,120,congruent,312,1,left,left,08-30-2017,10:30:25
14000,real,121,congruent,309,1,right,right,08-30-2017,10:30:25
14000,real,122,congruent,403,1,left,left,08-30-2017,10:30:25
14000,real,123,congruent,382,1,right,right,08-30-2017,10:30:25
14000,real,124,incongruent,410,1,left,left,08-30-2017,10:30:25
14000,real,125,congruent,472,1,left,left,08-30-2017,10:30:25
14000,real,126,congruent,397,1,right,right,08-30-2017,10:30:25
14000,real,127,congruent,427,1,right,right,08-30-2017,10:30:25
14000,real,128,congruent,356,1,left,left,08-30-2017,10:30:25
14000,real,129,congruent,466,1,right,right,08-30-2017,10:30:25
14000,real,130,congruent,341,1,left,left,08-30-2017,10:30:25
14000,real,131,incongruent,510,1,right,right,08-30-2017,10:30:25
14000,real,132,incongruent,596,1,left,left,08-30-2017,10:30:25
14000,real,133,congruent,436,1,right,right,08-30-2017,10:30:25
14000,real,134,congruent,397,1,left,left,08-30-2017,10:30:25
14000,real,135,congruent,403,1,right,right,08-30-2017,10:30:25
14000,real,136,incongruent,424,1,left,left,08-30-2017,10:30:25
14000,real,137,congruent,454,1,left,left,08-30-2017,10:30:25
14000,real,138,incongruent,503,1,left,left,08-30-2017,10:30:25
14000,real,139,congruent,437,1,left,left,08-30-2017,10:30:25
14000,real,140,incongruent,645,1,left,left,08-30-2017,10:30:25
14000,real,141,incongruent,475,1,right,right,08-30-2017,10:30:25
14000,real,142,incongruent,444,1,right,right,08-30-2017,10:30:25
14000,real,143,congruent,453,1,right,right,08-30-2017,10:30:25
14000,real,144,congruent,392,1,right,right,08-30-2017,10:30:25
14001,practice,1,incongruent,693,1,right,right,08-30-2017,10:30:55
14001,practice,2,incongruent,595,1,right,right,08-30-2017,10:30:55
14001,practice,3,congruent,420,1,right,right,08-30-2017,10:30:55
14001,practice,4,congruent,445,1,right,right,08-30-2017,10:30:55
14001,practice,5,congruent,401,1,right,right,08-30-2017,10:30:55
14001,practice,6,incongruent,546,1,left,left,08-30-2017,10:30:55
14001,practice,7,incongruent,515,1,left,left,08-30-2017,10:30:55
14001,practice,8,incongruent,545,1,left,left,08-30-2017,10:30:55
14001,practice,9,incongruent,456,1,right,right,08-30-2017,10:30:55
14001,practice,10,congruent,497,1,left,left,08-30-2017,10:30:55
14001,practice,11,congruent,458,1,left,left,08-30-2017,10:30:55
14001,practice,12,congruent,432,1,left,left,08-30-2017,10:30:55
14001,real,1,congruent,707,1,right,right,08-30-2017,10:30:55
14001,real,2,congruent,471,1,right,right,08-30-2017,10:30:55
14001,real,3,congruent,396,1,left,left,08-30-2017,10:30:55
14001,real,4,congruent,421,1,right,right,08-30-2017,10:30:55
14001,real,5,congruent,443,1,right,right,08-30-2017,10:30:55
14001,real,6,incongruent,385,1,left,left,08-30-2017,10:30:55
14001,real,7,congruent,439,1,left,left,08-30-2017,10:30:55
14001,real,8,congruent,389,1,right,right,08-30-2017,10:30:55
14001,real,9,incongruent,445,1,right,right,08-30-2017,10:30:55
14001,real,10,congruent,414,1,left,left,08-30-2017,10:30:55
14001,real,11,congruent,451,1,left,left,08-30-2017,10:30:55
14001,real,12,incongruent,468,1,right,right,08-30-2017,10:30:55
14001,real,13,congruent,399,1,right,right,08-30-2017,10:30:55
14001,real,14,congruent,384,1,left,left,08-30-2017,10:30:55
14001,real,15,congruent,435,1,left,left,08-30-2017,10:30:55
14001,real,16,incongruent,409,1,right,right,08-30-2017,10:30:55
14001,real,17,congruent,367,1,left,left,08-30-2017,10:30:55
14001,real,18,congruent,381,1,right,right,08-30-2017,10:30:55
14001,real,19,congruent,403,1,right,right,08-30-2017,10:30:55
14001,real,20,congruent,387,1,left,left,08-30-2017,10:30:55
14001,real,21,congruent,366,1,right,right,08-30-2017,10:30:55
14001,real,22,congruent,364,1,left,left,08-30-2017,10:30:55
14001,real,23,incongruent,407,1,right,right,08-30-2017,10:30:55
14001,real,24,incongruent,442,1,right,right,08-30-2017,10:30:55
14001,real,25,incongruent,360,1,left,left,08-30-2017,10:30:55
14001,real,26,incongruent,398,1,left,left,08-30-2017,10:30:55
14001,real,27,congruent,393,1,right,right,08-30-2017,10:30:55
14001,real,28,incongruent,365,1,left,left,08-30-2017,10:30:55
14001,real,29,congruent,360,1,right,right,08-30-2017,10:30:55
14001,real,30,congruent,400,1,right,right,08-30-2017,10:30:55
14001,real,31,incongruent,377,1,left,left,08-30-2017,10:30:55
14001,real,32,congruent,369,1,left,left,08-30-2017,10:30:55
14001,real,33,congruent,365,1,left,left,08-30-2017,10:30:55
14001,real,34,congruent,389,1,left,left,08-30-2017,10:30:55
14001,real,35,incongruent,347,1,right,right,08-30-2017,10:30:55
14001,real,36,incongruent,371,1,left,left,08-30-2017,10:30:55
14001,real,37,congruent,397,1,left,left,08-30-2017,10:30:55
14001,real,38,incongruent,390,1,left,left,08-30-2017,10:30:55
14001,real,39,incongruent,396,1,left,left,08-30-2017,10:30:55
14001,real,40,congruent,378,1,right,right,08-30-2017,10:30:55
14001,real,41,congruent,383,1,right,right,08-30-2017,10:30:55
14001,real,42,congruent,352,1,left,left,08-30-2017,10:30:55
14001,real,43,congruent,382,1,left,left,08-30-2017,10:30:55
14001,real,44,congruent,374,1,right,right,08-30-2017,10:30:55
14001,real,45,incongruent,412,1,left,left,08-30-2017,10:30:55
14001,real,46,incongruent,349,1,left,left,08-30-2017,10:30:55
14001,real,47,congruent,355,1,right,right,08-30-2017,10:30:55
14001,real,48,congruent,347,1,left,left,08-30-2017,10:30:55
14001,real,49,congruent,358,1,left,left,08-30-2017,10:30:55
14001,real,50,incongruent,415,1,left,left,08-30-2017,10:30:55
14001,real,51,incongruent,415,1,right,right,08-30-2017,10:30:55
14001,real,52,congruent,411,1,right,right,08-30-2017,10:30:55
14001,real,53,congruent,366,1,left,left,08-30-2017,10:30:55
14001,real,54,incongruent,449,1,left,left,08-30-2017,10:30:55
14001,real,55,congruent,420,1,left,left,08-30-2017,10:30:55
14001,real,56,incongruent,410,1,right,right,08-30-2017,10:30:55
14001,real,57,congruent,381,1,right,right,08-30-2017,10:30:55
14001,real,58,congruent,374,1,left,left,08-30-2017,10:30:55
14001,real,59,congruent,364,1,right,right,08-30-2017,10:30:55
14001,real,60,congruent,383,1,right,right,08-30-2017,10:30:55
14001,real,61,congruent,358,1,left,left,08-30-2017,10:30:55
14001,real,62,incongruent,359,1,right,right,08-30-2017,10:30:55
14001,real,63,congruent,343,1,left,left,08-30-2017,10:30:55
14001,real,64,congruent,381,1,right,right,08-30-2017,10:30:55
14001,real,65,congruent,355,1,left,left,08-30-2017,10:30:55
14001,real,66,incongruent,366,1,right,right,08-30-2017,10:30:55
14001,real,67,congruent,340,1,right,right,08-30-2017,10:30:55
14001,real,68,incongruent,386,0,left,right,08-30-2017,10:30:55
14001,real,69,congruent,387,1,right,right,08-30-2017,10:30:55
14001,real,70,incongruent,462,1,right,right,08-30-2017,10:30:55
14001,real,71,congruent,449,1,left,left,08-30-2017,10:30:55
14001,real,72,congruent,386,1,right,right,08-30-2017,10:30:55
14001,real,73,congruent,515,1,left,left,08-30-2017,10:30:55
14001,real,74,congruent,387,1,left,left,08-30-2017,10:30:55
14001,real,75,incongruent,404,1,right,right,08-30-2017,10:30:55
14001,real,76,incongruent,386,1,right,right,08-30-2017,10:30:55
14001,real,77,incongruent,373,1,right,right,08-30-2017,10:30:55
14001,real,78,congruent,371,1,left,left,08-30-2017,10:30:55
14001,real,79,congruent,406,1,right,right,08-30-2017,10:30:55
14001,real,80,incongruent,446,1,left,left,08-30-2017,10:30:55
14001,real,81,congruent,335,1,right,right,08-30-2017,10:30:55
14001,real,82,congruent,360,1,left,left,08-30-2017,10:30:55
14001,real,83,incongruent,421,1,left,left,08-30-2017,10:30:55
14001,real,84,incongruent,395,1,right,right,08-30-2017,10:30:55
14001,real,85,congruent,382,1,right,right,08-30-2017,10:30:55
14001,real,86,congruent,407,1,left,left,08-30-2017,10:30:55
14001,real,87,congruent,360,1,left,left,08-30-2017,10:30:55
14001,real,88,incongruent,547,1,left,left,08-30-2017,10:30:55
14001,real,89,congruent,361,1,right,right,08-30-2017,10:30:55
14001,real,90,incongruent,391,1,left,left,08-30-2017,10:30:55
14001,real,91,congruent,394,1,left,left,08-30-2017,10:30:55
14001,real,92,congruent,392,1,right,right,08-30-2017,10:30:55
14001,real,93,incongruent,445,1,right,right,08-30-2017,10:30:55
14001,real,94,congruent,403,1,left,left,08-30-2017,10:30:55
14001,real,95,congruent,393,1,left,left,08-30-2017,10:30:55
14001,real,96,congruent,399,1,left,left,08-30-2017,10:30:55
14001,real,97,incongruent,405,1,left,left,08-30-2017,10:30:55
14001,real,98,congruent,461,1,right,right,08-30-2017,10:30:55
14001,real,99,congruent,390,1,right,right,08-30-2017,10:30:55
14001,real,100,congruent,399,1,right,right,08-30-2017,10:30:55
14001,real,101,congruent,418,1,right,right,08-30-2017,10:30:55
14001,real,102,congruent,360,1,left,left,08-30-2017,10:30:55
14001,real,103,congruent,392,1,left,left,08-30-2017,10:30:55
14001,real,104,congruent,366,1,right,right,08-30-2017,10:30:55
14001,real,105,congruent,375,1,right,right,08-30-2017,10:30:55
14001,real,106,incongruent,404,1,right,right,08-30-2017,10:30:55
14001,real,107,congruent,338,1,right,right,08-30-2017,10:30:55
14001,real,108,incongruent,475,1,left,left,08-30-2017,10:30:55
14001,real,109,congruent,481,1,left,left,08-30-2017,10:30:55
14001,real,110,incongruent,426,1,right,right,08-30-2017,10:30:55
14001,real,111,congruent,371,1,right,right,08-30-2017,10:30:55
14001,real,112,congruent,344,1,right,right,08-30-2017,10:30:55
14001,real,113,congruent,337,1,right,right,08-30-2017,10:30:55
14001,real,114,congruent,375,1,left,left,08-30-2017,10:30:55
14001,real,115,congruent,354,1,right,right,08-30-2017,10:30:55
14001,real,116,congruent,360,1,left,left,08-30-2017,10:30:55
14001,real,117,congruent,320,1,right,right,08-30-2017,10:30:55
14001,real,118,incongruent,395,1,left,left,08-30-2017,10:30:55
14001,real,119,incongruent,388,1,left,left,08-30-2017,10:30:55
14001,real,120,incongruent,463,1,left,left,08-30-2017,10:30:55
14001,real,121,congruent,400,1,left,left,08-30-2017,10:30:55
14001,real,122,congruent,352,1,right,right,08-30-2017,10:30:55
14001,real,123,incongruent,385,1,left,left,08-30-2017,10:30:55
14001,real,124,incongruent,399,1,right,right,08-30-2017,10:30:55
14001,real,125,congruent,378,1,left,left,08-30-2017,10:30:55
14001,real,126,congruent,386,1,left,left,08-30-2017,10:30:55
14001,real,127,incongruent,446,1,left,left,08-30-2017,10:30:55
14001,real,128,congruent,401,1,right,right,08-30-2017,10:30:55
14001,real,129,congruent,388,1,right,right,08-30-2017,10:30:55
14001,real,130,congruent,485,1,right,right,08-30-2017,10:30:55
14001,real,131,congruent,378,1,left,left,08-30-2017,10:30:55
14001,real,132,incongruent,366,1,left,left,08-30-2017,10:30:55
14001,real,133,congruent,395,1,left,left,08-30-2017,10:30:55
14001,real,134,incongruent,369,1,right,right,08-30-2017,10:30:55
14001,real,135,incongruent,372,0,left,right,08-30-2017,10:30:55
14001,real,136,incongruent,458,1,right,right,08-30-2017,10:30:55
14001,real,137,congruent,352,1,right,right,08-30-2017,10:30:55
14001,real,138,congruent,374,1,left,left,08-30-2017,10:30:55
14001,real,139,congruent,375,1,right,right,08-30-2017,10:30:55
14001,real,140,congruent,383,1,right,right,08-30-2017,10:30:55
14001,real,141,incongruent,370,1,right,right,08-30-2017,10:30:55
14001,real,142,congruent,339,1,left,left,08-30-2017,10:30:55
14001,real,143,congruent,382,1,left,left,08-30-2017,10:30:55
14001,real,144,congruent,350,1,left,left,08-30-2017,10:30:55
14002,practice,1,congruent,970,1,right,right,08-30-2017,12:25:26
14002,practice,2,congruent,486,1,left,left,08-30-2017,12:25:26
14002,practice,3,congruent,482,1,left,left,08-30-2017,12:25:26
14002,practice,4,incongruent,467,1,right,right,08-30-2017,12:25:26
14002,practice,5,incongruent,572,1,right,right,08-30-2017,12:25:26
14002,practice,6,incongruent,744,1,left,left,08-30-2017,12:25:26
14002,practice,7,congruent,593,1,right,right,08-30-2017,12:25:26
14002,practice,8,incongruent,860,1,right,right,08-30-2017,12:25:26
14002,practice,9,congruent,677,1,left,left,08-30-2017,12:25:26
14002,practice,10,incongruent,577,1,left,left,08-30-2017,12:25:26
14002,practice,11,congruent,525,1,right,right,08-30-2017,12:25:26
14002,practice,12,incongruent,1342,1,left,left,08-30-2017,12:25:26
14002,real,1,incongruent,674,1,right,right,08-30-2017,12:25:26
14002,real,2,incongruent,621,1,left,left,08-30-2017,12:25:26
14002,real,3,congruent,467,1,left,left,08-30-2017,12:25:26
14002,real,4,incongruent,465,1,right,right,08-30-2017,12:25:26
14002,real,5,congruent,429,1,right,right,08-30-2017,12:25:26
14002,real,6,congruent,517,1,left,left,08-30-2017,12:25:26
14002,real,7,congruent,414,1,right,right,08-30-2017,12:25:26
14002,real,8,congruent,420,1,left,left,08-30-2017,12:25:26
14002,real,9,incongruent,495,1,right,right,08-30-2017,12:25:26
14002,real,10,congruent,520,1,right,right,08-30-2017,12:25:26
14002,real,11,congruent,437,1,left,left,08-30-2017,12:25:26
14002,real,12,congruent,406,1,right,right,08-30-2017,12:25:26
14002,real,13,incongruent,639,1,right,right,08-30-2017,12:25:26
14002,real,14,congruent,415,1,left,left,08-30-2017,12:25:26
14002,real,15,congruent,498,1,left,left,08-30-2017,12:25:26
14002,real,16,congruent,502,1,left,left,08-30-2017,12:25:26
14002,real,17,incongruent,942,1,left,left,08-30-2017,12:25:26
14002,real,18,congruent,452,1,right,right,08-30-2017,12:25:26
14002,real,19,incongruent,432,1,right,right,08-30-2017,12:25:26
14002,real,20,congruent,632,1,left,left,08-30-2017,12:25:26
14002,real,21,congruent,438,1,right,right,08-30-2017,12:25:26
14002,real,22,congruent,420,1,right,right,08-30-2017,12:25:26
14002,real,23,congruent,431,1,right,right,08-30-2017,12:25:26
14002,real,24,incongruent,467,1,left,left,08-30-2017,12:25:26
14002,real,25,incongruent,555,1,left,left,08-30-2017,12:25:26
14002,real,26,congruent,478,1,left,left,08-30-2017,12:25:26
14002,real,27,incongruent,460,1,right,right,08-30-2017,12:25:26
14002,real,28,congruent,509,1,right,right,08-30-2017,12:25:26
14002,real,29,congruent,520,1,left,left,08-30-2017,12:25:26
14002,real,30,incongruent,555,1,left,left,08-30-2017,12:25:26
14002,real,31,congruent,513,1,right,right,08-30-2017,12:25:26
14002,real,32,congruent,877,1,right,right,08-30-2017,12:25:26
14002,real,33,congruent,536,1,left,left,08-30-2017,12:25:26
14002,real,34,congruent,427,1,left,left,08-30-2017,12:25:26
14002,real,35,incongruent,540,1,left,left,08-30-2017,12:25:26
14002,real,36,congruent,578,1,right,right,08-30-2017,12:25:26
14002,real,37,congruent,491,1,left,left,08-30-2017,12:25:26
14002,real,38,incongruent,494,1,right,right,08-30-2017,12:25:26
14002,real,39,congruent,393,1,left,left,08-30-2017,12:25:26
14002,real,40,incongruent,487,1,left,left,08-30-2017,12:25:26
14002,real,41,incongruent,453,1,left,left,08-30-2017,12:25:26
14002,real,42,incongruent,403,1,left,left,08-30-2017,12:25:26
14002,real,43,incongruent,574,1,right,right,08-30-2017,12:25:26
14002,real,44,congruent,463,1,right,right,08-30-2017,12:25:26
14002,real,45,congruent,458,1,right,right,08-30-2017,12:25:26
14002,real,46,congruent,448,1,right,right,08-30-2017,12:25:26
14002,real,47,incongruent,451,1,left,left,08-30-2017,12:25:26
14002,real,48,congruent,376,1,right,right,08-30-2017,12:25:26
14002,real,49,congruent,383,1,left,left,08-30-2017,12:25:26
14002,real,50,congruent,500,1,left,left,08-30-2017,12:25:26
14002,real,51,congruent,439,1,right,right,08-30-2017,12:25:26
14002,real,52,congruent,402,1,left,left,08-30-2017,12:25:26
14002,real,53,congruent,421,1,right,right,08-30-2017,12:25:26
14002,real,54,congruent,1019,1,right,right,08-30-2017,12:25:26
14002,real,55,congruent,431,1,left,left,08-30-2017,12:25:26
14002,real,56,incongruent,437,1,right,right,08-30-2017,12:25:26
14002,real,57,congruent,549,1,right,right,08-30-2017,12:25:26
14002,real,58,incongruent,547,1,right,right,08-30-2017,12:25:26
14002,real,59,congruent,446,1,left,left,08-30-2017,12:25:26
14002,real,60,congruent,463,1,right,right,08-30-2017,12:25:26
14002,real,61,incongruent,429,0,left,right,08-30-2017,12:25:26
14002,real,62,congruent,437,1,left,left,08-30-2017,12:25:26
14002,real,63,incongruent,347,0,right,left,08-30-2017,12:25:26
14002,real,64,congruent,561,1,left,left,08-30-2017,12:25:26
14002,real,65,congruent,511,1,left,left,08-30-2017,12:25:26
14002,real,66,congruent,434,1,left,left,08-30-2017,12:25:26
14002,real,67,congruent,453,1,left,left,08-30-2017,12:25:26
14002,real,68,congruent,417,1,right,right,08-30-2017,12:25:26
14002,real,69,incongruent,559,1,right,right,08-30-2017,12:25:26
14002,real,70,incongruent,458,1,left,left,08-30-2017,12:25:26
14002,real,71,congruent,448,1,right,right,08-30-2017,12:25:26
14002,real,72,congruent,432,1,right,right,08-30-2017,12:25:26
14002,real,73,incongruent,600,1,right,right,08-30-2017,12:25:26
14002,real,74,incongruent,496,1,right,right,08-30-2017,12:25:26
14002,real,75,incongruent,662,1,left,left,08-30-2017,12:25:26
14002,real,76,congruent,538,1,left,left,08-30-2017,12:25:26
14002,real,77,incongruent,477,1,left,left,08-30-2017,12:25:26
14002,real,78,congruent,701,1,right,right,08-30-2017,12:25:26
14002,real,79,incongruent,579,1,right,right,08-30-2017,12:25:26
14002,real,80,congruent,441,1,left,left,08-30-2017,12:25:26
14002,real,81,congruent,485,1,left,left,08-30-2017,12:25:26
14002,real,82,congruent,453,1,right,right,08-30-2017,12:25:26
14002,real,83,congruent,536,1,right,right,08-30-2017,12:25:26
14002,real,84,congruent,396,1,right,right,08-30-2017,12:25:26
14002,real,85,congruent,335,1,right,right,08-30-2017,12:25:26
14002,real,86,incongruent,509,1,right,right,08-30-2017,12:25:26
14002,real,87,incongruent,403,1,left,left,08-30-2017,12:25:26
14002,real,88,congruent,366,1,left,left,08-30-2017,12:25:26
14002,real,89,congruent,332,0,right,left,08-30-2017,12:25:26
14002,real,90,congruent,492,1,left,left,08-30-2017,12:25:26
14002,real,91,congruent,426,1,left,left,08-30-2017,12:25:26
14002,real,92,congruent,357,1,left,left,08-30-2017,12:25:26
14002,real,93,congruent,347,1,left,left,08-30-2017,12:25:26
14002,real,94,congruent,366,1,right,right,08-30-2017,12:25:26
14002,real,95,incongruent,612,1,right,right,08-30-2017,12:25:26
14002,real,96,incongruent,394,1,left,left,08-30-2017,12:25:26
14002,real,97,congruent,416,1,right,right,08-30-2017,12:25:26
14002,real,98,incongruent,499,1,left,left,08-30-2017,12:25:26
14002,real,99,congruent,359,1,left,left,08-30-2017,12:25:26
14002,real,100,congruent,284,1,left,left,08-30-2017,12:25:26
14002,real,101,congruent,448,1,right,right,08-30-2017,12:25:26
14002,real,102,incongruent,779,1,left,left,08-30-2017,12:25:26
14002,real,103,congruent,838,1,right,right,08-30-2017,12:25:26
14002,real,104,congruent,378,1,right,right,08-30-2017,12:25:26
14002,real,105,congruent,429,1,right,right,08-30-2017,12:25:26
14002,real,106,congruent,405,1,right,right,08-30-2017,12:25:26
14002,real,107,incongruent,657,1,right,right,08-30-2017,12:25:26
14002,real,108,congruent,425,1,left,left,08-30-2017,12:25:26
14002,real,109,congruent,482,1,left,left,08-30-2017,12:25:26
14002,real,110,incongruent,458,1,left,left,08-30-2017,12:25:26
14002,real,111,congruent,392,1,right,right,08-30-2017,12:25:26
14002,real,112,congruent,601,1,left,left,08-30-2017,12:25:26
14002,real,113,incongruent,417,1,left,left,08-30-2017,12:25:26
14002,real,114,congruent,378,1,left,left,08-30-2017,12:25:26
14002,real,115,incongruent,586,1,right,right,08-30-2017,12:25:26
14002,real,116,congruent,376,1,left,left,08-30-2017,12:25:26
14002,real,117,congruent,361,1,right,right,08-30-2017,12:25:26
14002,real,118,congruent,329,1,left,left,08-30-2017,12:25:26
14002,real,119,congruent,399,1,left,left,08-30-2017,12:25:26
14002,real,120,congruent,346,1,right,right,08-30-2017,12:25:26
14002,real,121,incongruent,387,1,left,left,08-30-2017,12:25:26
14002,real,122,incongruent,265,1,right,right,08-30-2017,12:25:26
14002,real,123,congruent,473,1,left,left,08-30-2017,12:25:26
14002,real,124,congruent,447,1,right,right,08-30-2017,12:25:26
14002,real,125,congruent,357,1,right,right,08-30-2017,12:25:26
14002,real,126,congruent,344,1,right,right,08-30-2017,12:25:26
14002,real,127,congruent,436,1,left,left,08-30-2017,12:25:26
14002,real,128,congruent,396,1,right,right,08-30-2017,12:25:26
14002,real,129,incongruent,506,1,right,right,08-30-2017,12:25:26
14002,real,130,congruent,493,1,right,right,08-30-2017,12:25:26
14002,real,131,congruent,347,1,right,right,08-30-2017,12:25:26
14002,real,132,incongruent,334,0,right,left,08-30-2017,12:25:26
14002,real,133,congruent,410,1,left,left,08-30-2017,12:25:26
14002,real,134,incongruent,416,1,left,left,08-30-2017,12:25:26
14002,real,135,incongruent,477,1,left,left,08-30-2017,12:25:26
14002,real,136,congruent,417,1,right,right,08-30-2017,12:25:26
14002,real,137,congruent,452,1,right,right,08-30-2017,12:25:26
14002,real,138,incongruent,591,1,right,right,08-30-2017,12:25:26
14002,real,139,congruent,410,1,right,right,08-30-2017,12:25:26
14002,real,140,congruent,414,1,left,left,08-30-2017,12:25:26
14002,real,141,congruent,228,1,left,left,08-30-2017,12:25:26
14002,real,142,congruent,359,1,left,left,08-30-2017,12:25:26
14002,real,143,incongruent,341,0,left,right,08-30-2017,12:25:26
14002,real,144,incongruent,466,1,right,right,08-30-2017,12:25:26
14003,practice,1,incongruent,1226,1,left,left,08-30-2017,15:15:35
14003,practice,2,incongruent,761,1,left,left,08-30-2017,15:15:35
14003,practice,3,incongruent,775,1,right,right,08-30-2017,15:15:35
14003,practice,4,congruent,662,1,right,right,08-30-2017,15:15:35
14003,practice,5,congruent,964,1,left,left,08-30-2017,15:15:35
14003,practice,6,incongruent,1104,1,right,right,08-30-2017,15:15:35
14003,practice,7,congruent,633,1,left,left,08-30-2017,15:15:35
14003,practice,8,congruent,450,1,right,right,08-30-2017,15:15:35
14003,practice,9,congruent,510,1,left,left,08-30-2017,15:15:35
14003,practice,10,congruent,519,1,right,right,08-30-2017,15:15:35
14003,practice,11,incongruent,528,1,left,left,08-30-2017,15:15:35
14003,practice,12,incongruent,660,1,right,right,08-30-2017,15:15:35
14003,real,1,congruent,625,1,left,left,08-30-2017,15:15:35
14003,real,2,congruent,602,1,left,left,08-30-2017,15:15:35
14003,real,3,congruent,561,1,left,left,08-30-2017,15:15:35
14003,real,4,congruent,458,1,left,left,08-30-2017,15:15:35
14003,real,5,congruent,530,1,right,right,08-30-2017,15:15:35
14003,real,6,incongruent,734,1,left,left,08-30-2017,15:15:35
14003,real,7,congruent,526,1,right,right,08-30-2017,15:15:35
14003,real,8,incongruent,524,1,left,left,08-30-2017,15:15:35
14003,real,9,congruent,541,1,right,right,08-30-2017,15:15:35
14003,real,10,congruent,555,1,left,left,08-30-2017,15:15:35
14003,real,11,incongruent,534,1,right,right,08-30-2017,15:15:35
14003,real,12,congruent,569,1,left,left,08-30-2017,15:15:35
14003,real,13,congruent,522,1,right,right,08-30-2017,15:15:35
14003,real,14,congruent,536,1,right,right,08-30-2017,15:15:35
14003,real,15,incongruent,1062,1,right,right,08-30-2017,15:15:35
14003,real,16,incongruent,580,1,right,right,08-30-2017,15:15:35
14003,real,17,congruent,594,1,left,left,08-30-2017,15:15:35
14003,real,18,congruent,591,1,right,right,08-30-2017,15:15:35
14003,real,19,congruent,565,1,right,right,08-30-2017,15:15:35
14003,real,20,incongruent,830,1,right,right,08-30-2017,15:15:35
14003,real,21,incongruent,636,1,left,left,08-30-2017,15:15:35
14003,real,22,congruent,1151,1,left,left,08-30-2017,15:15:35
14003,real,23,congruent,781,1,right,right,08-30-2017,15:15:35
14003,real,24,congruent,558,1,left,left,08-30-2017,15:15:35
14003,real,25,incongruent,1007,1,left,left,08-30-2017,15:15:35
14003,real,26,congruent,578,1,right,right,08-30-2017,15:15:35
14003,real,27,incongruent,845,1,right,right,08-30-2017,15:15:35
14003,real,28,congruent,451,1,right,right,08-30-2017,15:15:35
14003,real,29,congruent,449,1,left,left,08-30-2017,15:15:35
14003,real,30,incongruent,578,1,left,left,08-30-2017,15:15:35
14003,real,31,congruent,496,1,right,right,08-30-2017,15:15:35
14003,real,32,congruent,531,1,left,left,08-30-2017,15:15:35
14003,real,33,congruent,590,1,left,left,08-30-2017,15:15:35
14003,real,34,incongruent,660,1,right,right,08-30-2017,15:15:35
14003,real,35,incongruent,519,1,left,left,08-30-2017,15:15:35
14003,real,36,congruent,715,1,right,right,08-30-2017,15:15:35
14003,real,37,incongruent,773,1,left,left,08-30-2017,15:15:35
14003,real,38,congruent,542,1,right,right,08-30-2017,15:15:35
14003,real,39,congruent,484,1,right,right,08-30-2017,15:15:35
14003,real,40,incongruent,501,1,left,left,08-30-2017,15:15:35
14003,real,41,congruent,437,1,left,left,08-30-2017,15:15:35
14003,real,42,incongruent,702,1,left,left,08-30-2017,15:15:35
14003,real,43,congruent,494,1,left,left,08-30-2017,15:15:35
14003,real,44,congruent,359,1,left,left,08-30-2017,15:15:35
14003,real,45,congruent,407,1,left,left,08-30-2017,15:15:35
14003,real,46,congruent,419,1,left,left,08-30-2017,15:15:35
14003,real,47,congruent,409,1,left,left,08-30-2017,15:15:35
14003,real,48,incongruent,556,1,left,left,08-30-2017,15:15:35
14003,real,49,congruent,650,1,left,left,08-30-2017,15:15:35
14003,real,50,incongruent,757,1,right,right,08-30-2017,15:15:35
14003,real,51,congruent,478,1,right,right,08-30-2017,15:15:35
14003,real,52,congruent,529,1,left,left,08-30-2017,15:15:35
14003,real,53,congruent,404,1,left,left,08-30-2017,15:15:35
14003,real,54,congruent,554,1,right,right,08-30-2017,15:15:35
14003,real,55,congruent,589,1,right,right,08-30-2017,15:15:35
14003,real,56,incongruent,689,1,right,right,08-30-2017,15:15:35
14003,real,57,congruent,516,1,left,left,08-30-2017,15:15:35
14003,real,58,congruent,589,1,right,right,08-30-2017,15:15:35
14003,real,59,incongruent,746,1,left,left,08-30-2017,15:15:35
14003,real,60,congruent,792,1,right,right,08-30-2017,15:15:35
14003,real,61,incongruent,726,1,right,right,08-30-2017,15:15:35
14003,real,62,incongruent,575,1,right,right,08-30-2017,15:15:35
14003,real,63,congruent,565,1,left,left,08-30-2017,15:15:35
14003,real,64,congruent,539,1,right,right,08-30-2017,15:15:35
14003,real,65,congruent,494,1,left,left,08-30-2017,15:15:35
14003,real,66,incongruent,620,1,right,right,08-30-2017,15:15:35
14003,real,67,incongruent,560,1,right,right,08-30-2017,15:15:35
14003,real,68,congruent,587,1,right,right,08-30-2017,15:15:35
14003,real,69,congruent,497,1,right,right,08-30-2017,15:15:35
14003,real,70,incongruent,641,1,left,left,08-30-2017,15:15:35
14003,real,71,congruent,829,1,right,right,08-30-2017,15:15:35
14003,real,72,congruent,581,1,right,right,08-30-2017,15:15:35
14003,real,73,incongruent,1119,1,left,left,08-30-2017,15:15:35
14003,real,74,congruent,442,1,right,right,08-30-2017,15:15:35
14003,real,75,incongruent,485,1,left,left,08-30-2017,15:15:35
14003,real,76,incongruent,627,1,right,right,08-30-2017,15:15:35
14003,real,77,incongruent,665,1,right,right,08-30-2017,15:15:35
14003,real,78,congruent,516,1,left,left,08-30-2017,15:15:35
14003,real,79,congruent,821,1,left,left,08-30-2017,15:15:35
14003,real,80,congruent,512,1,right,right,08-30-2017,15:15:35
14003,real,81,congruent,836,1,right,right,08-30-2017,15:15:35
14003,real,82,congruent,770,1,right,right,08-30-2017,15:15:35
14003,real,83,congruent,472,1,left,left,08-30-2017,15:15:35
14003,real,84,congruent,672,1,left,left,08-30-2017,15:15:35
14003,real,85,congruent,516,1,left,left,08-30-2017,15:15:35
14003,real,86,incongruent,689,1,right,right,08-30-2017,15:15:35
14003,real,87,congruent,586,1,right,right,08-30-2017,15:15:35
14003,real,88,incongruent,568,1,left,left,08-30-2017,15:15:35
14003,real,89,congruent,545,1,left,left,08-30-2017,15:15:35
14003,real,90,congruent,564,1,left,left,08-30-2017,15:15:35
14003,real,91,incongruent,1116,1,left,left,08-30-2017,15:15:35
14003,real,92,incongruent,624,1,left,left,08-30-2017,15:15:35
14003,real,93,congruent,539,1,right,right,08-30-2017,15:15:35
14003,real,94,incongruent,500,1,left,left,08-30-2017,15:15:35
14003,real,95,congruent,410,1,right,right,08-30-2017,15:15:35
14003,real,96,congruent,575,1,right,right,08-30-2017,15:15:35
14003,real,97,congruent,608,1,right,right,08-30-2017,15:15:35
14003,real,98,congruent,465,1,left,left,08-30-2017,15:15:35
14003,real,99,congruent,665,1,left,left,08-30-2017,15:15:35
14003,real,100,congruent,399,1,left,left,08-30-2017,15:15:35
14003,real,101,congruent,592,1,right,right,08-30-2017,15:15:35
14003,real,102,congruent,462,1,left,left,08-30-2017,15:15:35
14003,real,103,incongruent,921,1,right,right,08-30-2017,15:15:35
14003,real,104,incongruent,530,0,left,right,08-30-2017,15:15:35
14003,real,105,congruent,599,1,left,left,08-30-2017,15:15:35
14003,real,106,congruent,632,1,right,right,08-30-2017,15:15:35
14003,real,107,incongruent,673,1,right,right,08-30-2017,15:15:35
14003,real,108,congruent,641,1,right,right,08-30-2017,15:15:35
14003,real,109,incongruent,796,1,left,left,08-30-2017,15:15:35
14003,real,110,incongruent,533,1,left,left,08-30-2017,15:15:35
14003,real,111,incongruent,504,1,right,right,08-30-2017,15:15:35
14003,real,112,incongruent,500,1,left,left,08-30-2017,15:15:35
14003,real,113,congruent,634,1,right,right,08-30-2017,15:15:35
14003,real,114,congruent,450,1,right,right,08-30-2017,15:15:35
14003,real,115,incongruent,475,1,right,right,08-30-2017,15:15:35
14003,real,116,congruent,379,1,right,right,08-30-2017,15:15:35
14003,real,117,congruent,548,1,left,left,08-30-2017,15:15:35
14003,real,118,incongruent,501,1,left,left,08-30-2017,15:15:35
14003,real,119,incongruent,533,1,left,left,08-30-2017,15:15:35
14003,real,120,congruent,475,1,left,left,08-30-2017,15:15:35
14003,real,121,congruent,620,1,right,right,08-30-2017,15:15:35
14003,real,122,incongruent,684,1,right,right,08-30-2017,15:15:35
14003,real,123,congruent,522,1,right,right,08-30-2017,15:15:35
14003,real,124,congruent,496,1,right,right,08-30-2017,15:15:35
14003,real,125,incongruent,451,1,right,right,08-30-2017,15:15:35
14003,real,126,congruent,636,1,left,left,08-30-2017,15:15:35
14003,real,127,incongruent,647,1,right,right,08-30-2017,15:15:35
14003,real,128,congruent,493,1,right,right,08-30-2017,15:15:35
14003,real,129,congruent,614,1,left,left,08-30-2017,15:15:35
14003,real,130,congruent,460,1,right,right,08-30-2017,15:15:35
14003,real,131,congruent,532,1,right,right,08-30-2017,15:15:35
14003,real,132,congruent,528,1,left,left,08-30-2017,15:15:35
14003,real,133,incongruent,555,1,right,right,08-30-2017,15:15:35
14003,real,134,incongruent,587,1,left,left,08-30-2017,15:15:35
14003,real,135,congruent,742,1,left,left,08-30-2017,15:15:35
14003,real,136,congruent,717,1,left,left,08-30-2017,15:15:35
14003,real,137,congruent,434,1,left,left,08-30-2017,15:15:35
14003,real,138,congruent,538,1,left,left,08-30-2017,15:15:35
14003,real,139,congruent,507,1,left,left,08-30-2017,15:15:35
14003,real,140,congruent,651,1,right,right,08-30-2017,15:15:35
14003,real,141,congruent,513,1,left,left,08-30-2017,15:15:35
14003,real,142,congruent,519,1,right,right,08-30-2017,15:15:35
14003,real,143,congruent,451,1,left,left,08-30-2017,15:15:35
14003,real,144,congruent,953,1,right,right,08-30-2017,15:15:35
14004,practice,1,congruent,1188,1,left,left,08-30-2017,15:15:58
14004,practice,2,incongruent,909,1,right,right,08-30-2017,15:15:58
14004,practice,3,incongruent,780,1,right,right,08-30-2017,15:15:58
14004,practice,4,incongruent,639,1,left,left,08-30-2017,15:15:58
14004,practice,5,congruent,810,1,left,left,08-30-2017,15:15:58
14004,practice,6,congruent,539,1,right,right,08-30-2017,15:15:58
14004,practice,7,congruent,1228,1,right,right,08-30-2017,15:15:58
14004,practice,8,congruent,656,1,left,left,08-30-2017,15:15:58
14004,practice,9,incongruent,833,1,right,right,08-30-2017,15:15:58
14004,practice,10,congruent,1520,1,right,right,08-30-2017,15:15:58
14004,practice,11,incongruent,654,1,left,left,08-30-2017,15:15:58
14004,practice,12,incongruent,664,1,left,left,08-30-2017,15:15:58
14004,real,1,congruent,947,1,left,left,08-30-2017,15:15:58
14004,real,2,congruent,649,1,right,right,08-30-2017,15:15:58
14004,real,3,incongruent,671,1,right,right,08-30-2017,15:15:58
14004,real,4,incongruent,631,1,left,left,08-30-2017,15:15:58
14004,real,5,incongruent,523,1,left,left,08-30-2017,15:15:58
14004,real,6,incongruent,569,1,right,right,08-30-2017,15:15:58
14004,real,7,congruent,417,1,left,left,08-30-2017,15:15:58
14004,real,8,congruent,468,1,left,left,08-30-2017,15:15:58
14004,real,9,congruent,528,1,left,left,08-30-2017,15:15:58
14004,real,10,congruent,534,1,right,right,08-30-2017,15:15:58
14004,real,11,congruent,604,1,left,left,08-30-2017,15:15:58
14004,real,12,congruent,439,1,right,right,08-30-2017,15:15:58
14004,real,13,incongruent,2933,1,left,left,08-30-2017,15:15:58
14004,real,14,congruent,945,1,left,left,08-30-2017,15:15:58
14004,real,15,congruent,487,1,right,right,08-30-2017,15:15:58
14004,real,16,congruent,738,1,right,right,08-30-2017,15:15:58
14004,real,17,congruent,928,1,right,right,08-30-2017,15:15:58
14004,real,18,incongruent,769,1,right,right,08-30-2017,15:15:58
14004,real,19,incongruent,564,1,right,right,08-30-2017,15:15:58
14004,real,20,congruent,492,1,right,right,08-30-2017,15:15:58
14004,real,21,congruent,538,1,right,right,08-30-2017,15:15:58
14004,real,22,congruent,683,1,left,left,08-30-2017,15:15:58
14004,real,23,congruent,772,1,right,right,08-30-2017,15:15:58
14004,real,24,incongruent,604,1,left,left,08-30-2017,15:15:58
14004,real,25,congruent,538,1,left,left,08-30-2017,15:15:58
14004,real,26,incongruent,651,1,left,left,08-30-2017,15:15:58
14004,real,27,congruent,459,1,left,left,08-30-2017,15:15:58
14004,real,28,incongruent,537,1,right,right,08-30-2017,15:15:58
14004,real,29,incongruent,479,1,left,left,08-30-2017,15:15:58
14004,real,30,incongruent,504,1,right,right,08-30-2017,15:15:58
14004,real,31,congruent,488,1,left,left,08-30-2017,15:15:58
14004,real,32,congruent,441,1,right,right,08-30-2017,15:15:58
14004,real,33,congruent,380,1,left,left,08-30-2017,15:15:58
14004,real,34,congruent,503,1,right,right,08-30-2017,15:15:58
14004,real,35,congruent,440,1,left,left,08-30-2017,15:15:58
14004,real,36,congruent,443,1,right,right,08-30-2017,15:15:58
14004,real,37,incongruent,842,1,left,left,08-30-2017,15:15:58
14004,real,38,congruent,429,1,left,left,08-30-2017,15:15:58
14004,real,39,incongruent,553,1,right,right,08-30-2017,15:15:58
14004,real,40,incongruent,516,1,left,left,08-30-2017,15:15:58
14004,real,41,incongruent,508,1,left,left,08-30-2017,15:15:58
14004,real,42,incongruent,506,1,left,left,08-30-2017,15:15:58
14004,real,43,congruent,435,1,left,left,08-30-2017,15:15:58
14004,real,44,congruent,531,1,right,right,08-30-2017,15:15:58
14004,real,45,congruent,548,1,right,right,08-30-2017,15:15:58
14004,real,46,congruent,1370,1,right,right,08-30-2017,15:15:58
14004,real,47,congruent,363,1,left,left,08-30-2017,15:15:58
14004,real,48,incongruent,801,1,right,right,08-30-2017,15:15:58
14004,real,49,congruent,415,1,left,left,08-30-2017,15:15:58
14004,real,50,incongruent,541,1,left,left,08-30-2017,15:15:58
14004,real,51,incongruent,576,1,right,right,08-30-2017,15:15:58
14004,real,52,congruent,435,1,left,left,08-30-2017,15:15:58
14004,real,53,congruent,545,1,left,left,08-30-2017,15:15:58
14004,real,54,congruent,524,1,right,right,08-30-2017,15:15:58
14004,real,55,incongruent,720,1,right,right,08-30-2017,15:15:58
14004,real,56,congruent,467,1,left,left,08-30-2017,15:15:58
14004,real,57,congruent,537,1,right,right,08-30-2017,15:15:58
14004,real,58,congruent,420,1,right,right,08-30-2017,15:15:58
14004,real,59,congruent,463,1,left,left,08-30-2017,15:15:58
14004,real,60,congruent,514,1,right,right,08-30-2017,15:15:58
14004,real,61,congruent,480,1,right,right,08-30-2017,15:15:58
14004,real,62,congruent,380,1,right,right,08-30-2017,15:15:58
14004,real,63,congruent,409,1,left,left,08-30-2017,15:15:58
14004,real,64,congruent,431,1,left,left,08-30-2017,15:15:58
14004,real,65,congruent,504,1,right,right,08-30-2017,15:15:58
14004,real,66,incongruent,624,1,right,right,08-30-2017,15:15:58
14004,real,67,congruent,366,1,left,left,08-30-2017,15:15:58
14004,real,68,incongruent,650,1,right,right,08-30-2017,15:15:58
14004,real,69,congruent,384,1,left,left,08-30-2017,15:15:58
14004,real,70,congruent,422,1,right,right,08-30-2017,15:15:58
14004,real,71,incongruent,507,1,left,left,08-30-2017,15:15:58
14004,real,72,congruent,489,1,right,right,08-30-2017,15:15:58
14004,real,73,incongruent,648,1,right,right,08-30-2017,15:15:58
14004,real,74,congruent,510,1,left,left,08-30-2017,15:15:58
14004,real,75,congruent,505,1,right,right,08-30-2017,15:15:58
14004,real,76,congruent,396,1,right,right,08-30-2017,15:15:58
14004,real,77,congruent,370,1,right,right,08-30-2017,15:15:58
14004,real,78,incongruent,376,0,right,left,08-30-2017,15:15:58
14004,real,79,congruent,577,1,right,right,08-30-2017,15:15:58
14004,real,80,congruent,452,1,left,left,08-30-2017,15:15:58
14004,real,81,incongruent,548,1,right,right,08-30-2017,15:15:58
14004,real,82,incongruent,549,1,left,left,08-30-2017,15:15:58
14004,real,83,incongruent,587,1,left,left,08-30-2017,15:15:58
14004,real,84,congruent,537,1,right,right,08-30-2017,15:15:58
14004,real,85,congruent,522,1,left,left,08-30-2017,15:15:58
14004,real,86,congruent,666,1,left,left,08-30-2017,15:15:58
14004,real,87,incongruent,624,1,left,left,08-30-2017,15:15:58
14004,real,88,congruent,451,1,left,left,08-30-2017,15:15:58
14004,real,89,congruent,460,1,left,left,08-30-2017,15:15:58
14004,real,90,congruent,365,1,left,left,08-30-2017,15:15:58
14004,real,91,congruent,525,1,right,right,08-30-2017,15:15:58
14004,real,92,incongruent,534,0,left,right,08-30-2017,15:15:58
14004,real,93,incongruent,910,1,left,left,08-30-2017,15:15:58
14004,real,94,congruent,495,1,right,right,08-30-2017,15:15:58
14004,real,95,congruent,584,1,right,right,08-30-2017,15:15:58
14004,real,96,congruent,499,1,left,left,08-30-2017,15:15:58
14004,real,97,incongruent,582,1,left,left,08-30-2017,15:15:58
14004,real,98,congruent,633,1,left,left,08-30-2017,15:15:58
14004,real,99,incongruent,530,1,right,right,08-30-2017,15:15:58
14004,real,100,incongruent,731,1,right,right,08-30-2017,15:15:58
14004,real,101,congruent,577,1,right,right,08-30-2017,15:15:58
14004,real,102,congruent,430,1,right,right,08-30-2017,15:15:58
14004,real,103,congruent,586,1,right,right,08-30-2017,15:15:58
14004,real,104,congruent,466,1,left,left,08-30-2017,15:15:58
14004,real,105,incongruent,568,1,right,right,08-30-2017,15:15:58
14004,real,106,congruent,531,1,left,left,08-30-2017,15:15:58
14004,real,107,congruent,572,1,left,left,08-30-2017,15:15:58
14004,real,108,congruent,866,1,right,right,08-30-2017,15:15:58
14004,real,109,incongruent,582,1,left,left,08-30-2017,15:15:58
14004,real,110,incongruent,542,1,left,left,08-30-2017,15:15:58
14004,real,111,congruent,425,1,left,left,08-30-2017,15:15:58
14004,real,112,incongruent,519,1,left,left,08-30-2017,15:15:58
14004,real,113,congruent,440,1,left,left,08-30-2017,15:15:58
14004,real,114,congruent,542,1,right,right,08-30-2017,15:15:58
14004,real,115,congruent,422,1,left,left,08-30-2017,15:15:58
14004,real,116,congruent,471,1,right,right,08-30-2017,15:15:58
14004,real,117,incongruent,530,1,left,left,08-30-2017,15:15:58
14004,real,118,congruent,435,1,left,left,08-30-2017,15:15:58
14004,real,119,incongruent,523,1,right,right,08-30-2017,15:15:58
14004,real,120,incongruent,633,1,right,right,08-30-2017,15:15:58
14004,real,121,congruent,623,1,right,right,08-30-2017,15:15:58
14004,real,122,congruent,413,1,right,right,08-30-2017,15:15:58
14004,real,123,congruent,614,1,left,left,08-30-2017,15:15:58
14004,real,124,congruent,524,1,left,left,08-30-2017,15:15:58
14004,real,125,congruent,447,1,left,left,08-30-2017,15:15:58
14004,real,126,incongruent,485,1,right,right,08-30-2017,15:15:58
14004,real,127,congruent,501,1,right,right,08-30-2017,15:15:58
14004,real,128,congruent,419,1,right,right,08-30-2017,15:15:58
14004,real,129,congruent,398,1,right,right,08-30-2017,15:15:58
14004,real,130,incongruent,636,1,left,left,08-30-2017,15:15:58
14004,real,131,congruent,439,1,left,left,08-30-2017,15:15:58
14004,real,132,incongruent,549,1,right,right,08-30-2017,15:15:58
14004,real,133,incongruent,613,1,right,right,08-30-2017,15:15:58
14004,real,134,congruent,459,1,left,left,08-30-2017,15:15:58
14004,real,135,congruent,553,1,left,left,08-30-2017,15:15:58
14004,real,136,congruent,545,1,right,right,08-30-2017,15:15:58
14004,real,137,congruent,383,1,left,left,08-30-2017,15:15:58
14004,real,138,congruent,600,1,right,right,08-30-2017,15:15:58
14004,real,139,congruent,619,1,right,right,08-30-2017,15:15:58
14004,real,140,congruent,404,1,left,left,08-30-2017,15:15:58
14004,real,141,congruent,431,1,right,right,08-30-2017,15:15:58
14004,real,142,incongruent,674,1,left,left,08-30-2017,15:15:58
14004,real,143,incongruent,630,1,right,right,08-30-2017,15:15:58
14004,real,144,congruent,513,1,right,right,08-30-2017,15:15:58
14005,practice,1,congruent,786,1,left,left,08-30-2017,15:42:14
14005,practice,2,congruent,526,1,left,left,08-30-2017,15:42:14
14005,practice,3,incongruent,669,0,right,left,08-30-2017,15:42:14
14005,practice,4,incongruent,936,1,right,right,08-30-2017,15:42:14
14005,practice,5,congruent,503,1,left,left,08-30-2017,15:42:14
14005,practice,6,congruent,464,1,right,right,08-30-2017,15:42:14
14005,practice,7,incongruent,593,1,left,left,08-30-2017,15:42:14
14005,practice,8,congruent,418,1,right,right,08-30-2017,15:42:14
14005,practice,9,incongruent,592,1,right,right,08-30-2017,15:42:14
14005,practice,10,incongruent,607,1,right,right,08-30-2017,15:42:14
14005,practice,11,incongruent,877,1,left,left,08-30-2017,15:42:14
14005,practice,12,congruent,468,1,right,right,08-30-2017,15:42:14
14005,real,1,congruent,662,1,right,right,08-30-2017,15:42:14
14005,real,2,congruent,449,1,right,right,08-30-2017,15:42:14
14005,real,3,incongruent,545,1,right,right,08-30-2017,15:42:14
14005,real,4,incongruent,495,1,right,right,08-30-2017,15:42:14
14005,real,5,congruent,405,1,right,right,08-30-2017,15:42:14
14005,real,6,incongruent,491,1,right,right,08-30-2017,15:42:14
14005,real,7,incongruent,529,1,left,left,08-30-2017,15:42:14
14005,real,8,congruent,583,1,left,left,08-30-2017,15:42:14
14005,real,9,congruent,437,1,right,right,08-30-2017,15:42:14
14005,real,10,congruent,397,1,right,right,08-30-2017,15:42:14
14005,real,11,congruent,379,1,right,right,08-30-2017,15:42:14
14005,real,12,congruent,593,1,left,left,08-30-2017,15:42:14
14005,real,13,congruent,362,1,left,left,08-30-2017,15:42:14
14005,real,14,incongruent,392,1,right,right,08-30-2017,15:42:14
14005,real,15,congruent,421,1,left,left,08-30-2017,15:42:14
14005,real,16,congruent,617,1,left,left,08-30-2017,15:42:14
14005,real,17,incongruent,492,1,right,right,08-30-2017,15:42:14
14005,real,18,incongruent,532,1,right,right,08-30-2017,15:42:14
14005,real,19,incongruent,480,1,left,left,08-30-2017,15:42:14
14005,real,20,incongruent,619,1,left,left,08-30-2017,15:42:14
14005,real,21,congruent,401,1,right,right,08-30-2017,15:42:14
14005,real,22,congruent,551,1,right,right,08-30-2017,15:42:14
14005,real,23,congruent,439,1,left,left,08-30-2017,15:42:14
14005,real,24,congruent,421,1,right,right,08-30-2017,15:42:14
14005,real,25,congruent,382,1,right,right,08-30-2017,15:42:14
14005,real,26,congruent,284,0,right,left,08-30-2017,15:42:14
14005,real,27,congruent,468,1,left,left,08-30-2017,15:42:14
14005,real,28,congruent,450,1,left,left,08-30-2017,15:42:14
14005,real,29,congruent,400,1,right,right,08-30-2017,15:42:14
14005,real,30,incongruent,473,1,left,left,08-30-2017,15:42:14
14005,real,31,congruent,412,1,left,left,08-30-2017,15:42:14
14005,real,32,congruent,391,1,right,right,08-30-2017,15:42:14
14005,real,33,congruent,544,1,left,left,08-30-2017,15:42:14
14005,real,34,congruent,840,1,left,left,08-30-2017,15:42:14
14005,real,35,incongruent,724,1,left,left,08-30-2017,15:42:14
14005,real,36,incongruent,508,1,left,left,08-30-2017,15:42:14
14005,real,37,congruent,1757,1,left,left,08-30-2017,15:42:14
14005,real,38,congruent,545,1,left,left,08-30-2017,15:42:14
14005,real,39,congruent,343,1,left,left,08-30-2017,15:42:14
14005,real,40,congruent,327,1,left,left,08-30-2017,15:42:14
14005,real,41,congruent,419,1,right,right,08-30-2017,15:42:14
14005,real,42,congruent,382,1,left,left,08-30-2017,15:42:14
14005,real,43,incongruent,302,0,left,right,08-30-2017,15:42:14
14005,real,44,congruent,433,1,left,left,08-30-2017,15:42:14
14005,real,45,congruent,525,1,right,right,08-30-2017,15:42:14
14005,real,46,congruent,552,1,left,left,08-30-2017,15:42:14
14005,real,47,congruent,438,1,left,left,08-30-2017,15:42:14
14005,real,48,congruent,390,1,right,right,08-30-2017,15:42:14
14005,real,49,congruent,378,1,right,right,08-30-2017,15:42:14
14005,real,50,incongruent,469,1,left,left,08-30-2017,15:42:14
14005,real,51,congruent,352,1,right,right,08-30-2017,15:42:14
14005,real,52,congruent,515,1,right,right,08-30-2017,15:42:14
14005,real,53,congruent,625,1,right,right,08-30-2017,15:42:14
14005,real,54,congruent,469,1,right,right,08-30-2017,15:42:14
14005,real,55,congruent,352,1,right,right,08-30-2017,15:42:14
14005,real,56,incongruent,534,1,left,left,08-30-2017,15:42:14
14005,real,57,congruent,364,1,left,left,08-30-2017,15:42:14
14005,real,58,incongruent,716,1,left,left,08-30-2017,15:42:14
14005,real,59,incongruent,621,1,right,right,08-30-2017,15:42:14
14005,real,60,incongruent,565,1,right,right,08-30-2017,15:42:14
14005,real,61,congruent,433,1,left,left,08-30-2017,15:42:14
14005,real,62,incongruent,575,1,right,right,08-30-2017,15:42:14
14005,real,63,incongruent,490,1,left,left,08-30-2017,15:42:14
14005,real,64,congruent,573,1,right,right,08-30-2017,15:42:14
14005,real,65,incongruent,595,1,left,left,08-30-2017,15:42:14
14005,real,66,congruent,470,1,right,right,08-30-2017,15:42:14
14005,real,67,incongruent,569,0,left,right,08-30-2017,15:42:14
14005,real,68,incongruent,599,1,right,right,08-30-2017,15:42:14
14005,real,69,congruent,523,1,left,left,08-30-2017,15:42:14
14005,real,70,congruent,505,1,left,left,08-30-2017,15:42:14
14005,real,71,congruent,391,1,right,right,08-30-2017,15:42:14
14005,real,72,incongruent,836,1,left,left,08-30-2017,15:42:14
14005,real,73,incongruent,640,1,right,right,08-30-2017,15:42:14
14005,real,74,incongruent,582,1,right,right,08-30-2017,15:42:14
14005,real,75,congruent,404,1,right,right,08-30-2017,15:42:14
14005,real,76,incongruent,557,1,left,left,08-30-2017,15:42:14
14005,real,77,congruent,461,1,left,left,08-30-2017,15:42:14
14005,real,78,congruent,512,1,right,right,08-30-2017,15:42:14
14005,real,79,congruent,420,1,left,left,08-30-2017,15:42:14
14005,real,80,congruent,490,1,right,right,08-30-2017,15:42:14
14005,real,81,congruent,557,1,left,left,08-30-2017,15:42:14
14005,real,82,congruent,413,1,left,left,08-30-2017,15:42:14
14005,real,83,congruent,347,1,right,right,08-30-2017,15:42:14
14005,real,84,congruent,393,1,left,left,08-30-2017,15:42:14
14005,real,85,congruent,407,1,right,right,08-30-2017,15:42:14
14005,real,86,congruent,400,1,left,left,08-30-2017,15:42:14
14005,real,87,congruent,395,1,left,left,08-30-2017,15:42:14
14005,real,88,congruent,403,1,right,right,08-30-2017,15:42:14
14005,real,89,congruent,391,1,left,left,08-30-2017,15:42:14
14005,real,90,congruent,421,1,left,left,08-30-2017,15:42:14
14005,real,91,congruent,352,1,left,left,08-30-2017,15:42:14
14005,real,92,incongruent,326,0,left,right,08-30-2017,15:42:14
14005,real,93,incongruent,558,1,left,left,08-30-2017,15:42:14
14005,real,94,congruent,396,1,right,right,08-30-2017,15:42:14
14005,real,95,incongruent,389,0,left,right,08-30-2017,15:42:14
14005,real,96,congruent,370,1,left,left,08-30-2017,15:42:14
14005,real,97,incongruent,550,1,right,right,08-30-2017,15:42:14
14005,real,98,incongruent,665,1,left,left,08-30-2017,15:42:14
14005,real,99,incongruent,906,1,left,left,08-30-2017,15:42:14
14005,real,100,incongruent,629,1,left,left,08-30-2017,15:42:14
14005,real,101,congruent,440,1,right,right,08-30-2017,15:42:14
14005,real,102,congruent,665,1,left,left,08-30-2017,15:42:14
14005,real,103,congruent,583,1,right,right,08-30-2017,15:42:14
14005,real,104,congruent,498,1,right,right,08-30-2017,15:42:14
14005,real,105,congruent,421,1,right,right,08-30-2017,15:42:14
14005,real,106,incongruent,374,0,right,left,08-30-2017,15:42:14
14005,real,107,incongruent,409,0,left,right,08-30-2017,15:42:14
14005,real,108,congruent,537,0,left,right,08-30-2017,15:42:14
14005,real,109,incongruent,894,1,right,right,08-30-2017,15:42:14
14005,real,110,congruent,385,1,left,left,08-30-2017,15:42:14
14005,real,111,incongruent,348,0,left,right,08-30-2017,15:42:14
14005,real,112,congruent,559,1,left,left,08-30-2017,15:42:14
14005,real,113,congruent,435,1,left,left,08-30-2017,15:42:14
14005,real,114,congruent,467,1,left,left,08-30-2017,15:42:14
14005,real,115,congruent,382,1,right,right,08-30-2017,15:42:14
14005,real,116,incongruent,362,0,left,right,08-30-2017,15:42:14
14005,real,117,incongruent,615,1,right,right,08-30-2017,15:42:14
14005,real,118,congruent,440,1,right,right,08-30-2017,15:42:14
14005,real,119,incongruent,449,1,left,left,08-30-2017,15:42:14
14005,real,120,incongruent,380,0,right,left,08-30-2017,15:42:14
14005,real,121,congruent,570,1,right,right,08-30-2017,15:42:14
14005,real,122,congruent,480,1,right,right,08-30-2017,15:42:14
14005,real,123,incongruent,493,1,left,left,08-30-2017,15:42:14
14005,real,124,congruent,441,1,right,right,08-30-2017,15:42:14
14005,real,125,incongruent,439,0,left,right,08-30-2017,15:42:14
14005,real,126,congruent,370,1,left,left,08-30-2017,15:42:14
14005,real,127,congruent,408,1,right,right,08-30-2017,15:42:14
14005,real,128,congruent,531,1,left,left,08-30-2017,15:42:14
14005,real,129,incongruent,585,1,right,right,08-30-2017,15:42:14
14005,real,130,congruent,596,1,right,right,08-30-2017,15:42:14
14005,real,131,congruent,509,1,right,right,08-30-2017,15:42:14
14005,real,132,incongruent,600,1,left,left,08-30-2017,15:42:14
14005,real,133,congruent,398,1,left,left,08-30-2017,15:42:14
14005,real,134,congruent,436,1,left,left,08-30-2017,15:42:14
14005,real,135,congruent,412,1,right,right,08-30-2017,15:42:14
14005,real,136,incongruent,621,1,left,left,08-30-2017,15:42:14
14005,real,137,congruent,368,1,right,right,08-30-2017,15:42:14
14005,real,138,incongruent,393,1,left,left,08-30-2017,15:42:14
14005,real,139,congruent,580,1,left,left,08-30-2017,15:42:14
14005,real,140,congruent,533,1,left,left,08-30-2017,15:42:14
14005,real,141,congruent,418,1,left,left,08-30-2017,15:42:14
14005,real,142,congruent,414,1,right,right,08-30-2017,15:42:14
14005,real,143,congruent,388,1,right,right,08-30-2017,15:42:14
14005,real,144,congruent,433,1,left,left,08-30-2017,15:42:14
14006,practice,1,congruent,675,1,right,right,08-30-2017,16:36:56
14006,practice,2,incongruent,516,1,right,right,08-30-2017,16:36:56
14006,practice,3,incongruent,437,1,right,right,08-30-2017,16:36:56
14006,practice,4,congruent,486,1,left,left,08-30-2017,16:36:56
14006,practice,5,congruent,450,1,right,right,08-30-2017,16:36:56
14006,practice,6,incongruent,603,1,right,right,08-30-2017,16:36:56
14006,practice,7,incongruent,513,1,left,left,08-30-2017,16:36:56
14006,practice,8,incongruent,520,1,left,left,08-30-2017,16:36:56
14006,practice,9,congruent,522,1,right,right,08-30-2017,16:36:56
14006,practice,10,incongruent,427,1,left,left,08-30-2017,16:36:56
14006,practice,11,congruent,436,1,left,left,08-30-2017,16:36:56
14006,practice,12,congruent,413,1,left,left,08-30-2017,16:36:56
14006,real,1,incongruent,707,1,left,left,08-30-2017,16:36:56
14006,real,2,congruent,457,1,left,left,08-30-2017,16:36:56
14006,real,3,congruent,349,1,left,left,08-30-2017,16:36:56
14006,real,4,congruent,461,1,right,right,08-30-2017,16:36:56
14006,real,5,congruent,403,1,right,right,08-30-2017,16:36:56
14006,real,6,congruent,436,1,left,left,08-30-2017,16:36:56
14006,real,7,incongruent,487,1,right,right,08-30-2017,16:36:56
14006,real,8,incongruent,509,1,left,left,08-30-2017,16:36:56
14006,real,9,congruent,395,1,right,right,08-30-2017,16:36:56
14006,real,10,congruent,427,1,right,right,08-30-2017,16:36:56
14006,real,11,congruent,380,1,left,left,08-30-2017,16:36:56
14006,real,12,congruent,386,1,left,left,08-30-2017,16:36:56
14006,real,13,incongruent,482,1,left,left,08-30-2017,16:36:56
14006,real,14,congruent,379,1,left,left,08-30-2017,16:36:56
14006,real,15,incongruent,403,1,left,left,08-30-2017,16:36:56
14006,real,16,congruent,409,1,left,left,08-30-2017,16:36:56
14006,real,17,congruent,370,1,left,left,08-30-2017,16:36:56
14006,real,18,congruent,408,1,right,right,08-30-2017,16:36:56
14006,real,19,congruent,496,1,right,right,08-30-2017,16:36:56
14006,real,20,congruent,355,1,right,right,08-30-2017,16:36:56
14006,real,21,congruent,388,1,right,right,08-30-2017,16:36:56
14006,real,22,congruent,367,1,right,right,08-30-2017,16:36:56
14006,real,23,incongruent,485,1,right,right,08-30-2017,16:36:56
14006,real,24,congruent,462,1,left,left,08-30-2017,16:36:56
14006,real,25,congruent,388,1,right,right,08-30-2017,16:36:56
14006,real,26,congruent,409,1,right,right,08-30-2017,16:36:56
14006,real,27,incongruent,519,1,right,right,08-30-2017,16:36:56
14006,real,28,incongruent,395,1,right,right,08-30-2017,16:36:56
14006,real,29,incongruent,419,1,right,right,08-30-2017,16:36:56
14006,real,30,congruent,425,1,left,left,08-30-2017,16:36:56
14006,real,31,congruent,423,1,left,left,08-30-2017,16:36:56
14006,real,32,incongruent,488,1,right,right,08-30-2017,16:36:56
14006,real,33,incongruent,536,1,left,left,08-30-2017,16:36:56
14006,real,34,congruent,534,1,right,right,08-30-2017,16:36:56
14006,real,35,incongruent,567,1,left,left,08-30-2017,16:36:56
14006,real,36,congruent,495,1,left,left,08-30-2017,16:36:56
14006,real,37,incongruent,618,1,left,left,08-30-2017,16:36:56
14006,real,38,congruent,443,1,left,left,08-30-2017,16:36:56
14006,real,39,incongruent,508,1,left,left,08-30-2017,16:36:56
14006,real,40,incongruent,503,1,left,left,08-30-2017,16:36:56
14006,real,41,congruent,631,1,left,left,08-30-2017,16:36:56
14006,real,42,incongruent,496,1,right,right,08-30-2017,16:36:56
14006,real,43,congruent,387,1,right,right,08-30-2017,16:36:56
14006,real,44,congruent,422,1,right,right,08-30-2017,16:36:56
14006,real,45,congruent,367,1,right,right,08-30-2017,16:36:56
14006,real,46,incongruent,453,1,left,left,08-30-2017,16:36:56
14006,real,47,congruent,464,1,right,right,08-30-2017,16:36:56
14006,real,48,congruent,483,1,right,right,08-30-2017,16:36:56
14006,real,49,congruent,524,1,right,right,08-30-2017,16:36:56
14006,real,50,congruent,799,1,left,left,08-30-2017,16:36:56
14006,real,51,congruent,587,1,right,right,08-30-2017,16:36:56
14006,real,52,congruent,443,1,right,right,08-30-2017,16:36:56
14006,real,53,congruent,398,1,right,right,08-30-2017,16:36:56
14006,real,54,incongruent,538,1,right,right,08-30-2017,16:36:56
14006,real,55,congruent,472,1,left,left,08-30-2017,16:36:56
14006,real,56,congruent,427,1,left,left,08-30-2017,16:36:56
14006,real,57,congruent,411,1,left,left,08-30-2017,16:36:56
14006,real,58,congruent,390,1,left,left,08-30-2017,16:36:56
14006,real,59,incongruent,524,1,left,left,08-30-2017,16:36:56
14006,real,60,incongruent,384,1,left,left,08-30-2017,16:36:56
14006,real,61,incongruent,472,1,right,right,08-30-2017,16:36:56
14006,real,62,congruent,379,1,left,left,08-30-2017,16:36:56
14006,real,63,incongruent,457,1,right,right,08-30-2017,16:36:56
14006,real,64,congruent,484,1,left,left,08-30-2017,16:36:56
14006,real,65,congruent,402,1,left,left,08-30-2017,16:36:56
14006,real,66,congruent,597,1,right,right,08-30-2017,16:36:56
14006,real,67,congruent,427,1,left,left,08-30-2017,16:36:56
14006,real,68,congruent,543,1,left,left,08-30-2017,16:36:56
14006,real,69,incongruent,677,1,right,right,08-30-2017,16:36:56
14006,real,70,congruent,413,1,right,right,08-30-2017,16:36:56
14006,real,71,incongruent,520,1,right,right,08-30-2017,16:36:56
14006,real,72,congruent,526,1,right,right,08-30-2017,16:36:56
14006,real,73,incongruent,615,1,left,left,08-30-2017,16:36:56
14006,real,74,incongruent,480,1,right,right,08-30-2017,16:36:56
14006,real,75,incongruent,443,1,left,left,08-30-2017,16:36:56
14006,real,76,congruent,433,1,right,right,08-30-2017,16:36:56
14006,real,77,congruent,401,1,left,left,08-30-2017,16:36:56
14006,real,78,incongruent,453,1,right,right,08-30-2017,16:36:56
14006,real,79,congruent,381,1,left,left,08-30-2017,16:36:56
14006,real,80,incongruent,430,1,left,left,08-30-2017,16:36:56
14006,real,81,congruent,433,1,right,right,08-30-2017,16:36:56
14006,real,82,congruent,497,1,left,left,08-30-2017,16:36:56
14006,real,83,incongruent,437,1,right,right,08-30-2017,16:36:56
14006,real,84,congruent,368,1,right,right,08-30-2017,16:36:56
14006,real,85,congruent,387,1,left,left,08-30-2017,16:36:56
14006,real,86,congruent,396,1,right,right,08-30-2017,16:36:56
14006,real,87,incongruent,490,1,right,right,08-30-2017,16:36:56
14006,real,88,congruent,485,1,right,right,08-30-2017,16:36:56
14006,real,89,incongruent,512,1,left,left,08-30-2017,16:36:56
14006,real,90,congruent,401,1,left,left,08-30-2017,16:36:56
14006,real,91,incongruent,513,1,left,left,08-30-2017,16:36:56
14006,real,92,congruent,418,1,right,right,08-30-2017,16:36:56
14006,real,93,congruent,405,1,left,left,08-30-2017,16:36:56
14006,real,94,incongruent,416,1,right,right,08-30-2017,16:36:56
14006,real,95,incongruent,470,1,right,right,08-30-2017,16:36:56
14006,real,96,congruent,361,1,right,right,08-30-2017,16:36:56
14006,real,97,congruent,399,1,left,left,08-30-2017,16:36:56
14006,real,98,congruent,352,1,right,right,08-30-2017,16:36:56
14006,real,99,congruent,376,1,left,left,08-30-2017,16:36:56
14006,real,100,incongruent,422,1,left,left,08-30-2017,16:36:56
14006,real,101,congruent,388,1,right,right,08-30-2017,16:36:56
14006,real,102,congruent,338,1,right,right,08-30-2017,16:36:56
14006,real,103,congruent,362,1,left,left,08-30-2017,16:36:56
14006,real,104,congruent,464,1,left,left,08-30-2017,16:36:56
14006,real,105,congruent,331,1,left,left,08-30-2017,16:36:56
14006,real,106,congruent,447,1,right,right,08-30-2017,16:36:56
14006,real,107,congruent,396,1,left,left,08-30-2017,16:36:56
14006,real,108,congruent,328,1,right,right,08-30-2017,16:36:56
14006,real,109,incongruent,561,1,left,left,08-30-2017,16:36:56
14006,real,110,congruent,386,1,left,left,08-30-2017,16:36:56
14006,real,111,incongruent,389,1,right,right,08-30-2017,16:36:56
14006,real,112,incongruent,424,1,right,right,08-30-2017,16:36:56
14006,real,113,congruent,353,1,right,right,08-30-2017,16:36:56
14006,real,114,incongruent,406,1,left,left,08-30-2017,16:36:56
14006,real,115,congruent,330,1,right,right,08-30-2017,16:36:56
14006,real,116,congruent,346,1,right,right,08-30-2017,16:36:56
14006,real,117,congruent,349,1,right,right,08-30-2017,16:36:56
14006,real,118,incongruent,470,1,left,left,08-30-2017,16:36:56
14006,real,119,congruent,342,1,right,right,08-30-2017,16:36:56
14006,real,120,congruent,396,1,left,left,08-30-2017,16:36:56
14006,real,121,congruent,373,1,left,left,08-30-2017,16:36:56
14006,real,122,congruent,351,1,left,left,08-30-2017,16:36:56
14006,real,123,congruent,346,1,left,left,08-30-2017,16:36:56
14006,real,124,incongruent,416,1,right,right,08-30-2017,16:36:56
14006,real,125,incongruent,446,1,right,right,08-30-2017,16:36:56
14006,real,126,incongruent,425,1,right,right,08-30-2017,16:36:56
14006,real,127,incongruent,410,1,left,left,08-30-2017,16:36:56
14006,real,128,congruent,429,1,right,right,08-30-2017,16:36:56
14006,real,129,congruent,408,1,left,left,08-30-2017,16:36:56
14006,real,130,congruent,441,1,left,left,08-30-2017,16:36:56
14006,real,131,incongruent,551,1,right,right,08-30-2017,16:36:56
14006,real,132,congruent,455,1,right,right,08-30-2017,16:36:56
14006,real,133,congruent,403,1,left,left,08-30-2017,16:36:56
14006,real,134,incongruent,446,1,left,left,08-30-2017,16:36:56
14006,real,135,congruent,385,1,left,left,08-30-2017,16:36:56
14006,real,136,incongruent,423,1,left,left,08-30-2017,16:36:56
14006,real,137,congruent,458,1,right,right,08-30-2017,16:36:56
14006,real,138,congruent,352,1,right,right,08-30-2017,16:36:56
14006,real,139,congruent,403,1,right,right,08-30-2017,16:36:56
14006,real,140,congruent,364,1,right,right,08-30-2017,16:36:56
14006,real,141,congruent,356,1,left,left,08-30-2017,16:36:56
14006,real,142,congruent,421,1,right,right,08-30-2017,16:36:56
14006,real,143,congruent,330,1,left,left,08-30-2017,16:36:56
14006,real,144,congruent,336,1,left,left,08-30-2017,16:36:56
14007,practice,1,congruent,634,1,right,right,08-31-2017,10:20:01
14007,practice,2,congruent,771,1,left,left,08-31-2017,10:20:01
14007,practice,3,incongruent,1073,1,left,left,08-31-2017,10:20:01
14007,practice,4,congruent,472,1,left,left,08-31-2017,10:20:01
14007,practice,5,incongruent,553,1,right,right,08-31-2017,10:20:01
14007,practice,6,incongruent,495,1,right,right,08-31-2017,10:20:01
14007,practice,7,congruent,523,1,right,right,08-31-2017,10:20:01
14007,practice,8,incongruent,487,1,left,left,08-31-2017,10:20:01
14007,practice,9,congruent,440,1,right,right,08-31-2017,10:20:01
14007,practice,10,incongruent,528,1,left,left,08-31-2017,10:20:01
14007,practice,11,congruent,452,1,left,left,08-31-2017,10:20:01
14007,practice,12,incongruent,693,1,right,right,08-31-2017,10:20:01
14007,real,1,congruent,655,1,left,left,08-31-2017,10:20:01
14007,real,2,congruent,557,1,right,right,08-31-2017,10:20:01
14007,real,3,congruent,413,1,right,right,08-31-2017,10:20:01
14007,real,4,congruent,419,1,right,right,08-31-2017,10:20:01
14007,real,5,congruent,406,1,right,right,08-31-2017,10:20:01
14007,real,6,congruent,410,1,left,left,08-31-2017,10:20:01
14007,real,7,congruent,573,1,left,left,08-31-2017,10:20:01
14007,real,8,congruent,456,1,left,left,08-31-2017,10:20:01
14007,real,9,incongruent,489,1,right,right,08-31-2017,10:20:01
14007,real,10,incongruent,553,1,left,left,08-31-2017,10:20:01
14007,real,11,incongruent,722,1,right,right,08-31-2017,10:20:01
14007,real,12,incongruent,482,1,left,left,08-31-2017,10:20:01
14007,real,13,congruent,486,1,right,right,08-31-2017,10:20:01
14007,real,14,congruent,494,1,left,left,08-31-2017,10:20:01
14007,real,15,incongruent,625,1,right,right,08-31-2017,10:20:01
14007,real,16,congruent,469,1,left,left,08-31-2017,10:20:01
14007,real,17,congruent,381,1,right,right,08-31-2017,10:20:01
14007,real,18,incongruent,505,1,left,left,08-31-2017,10:20:01
14007,real,19,congruent,372,1,right,right,08-31-2017,10:20:01
14007,real,20,congruent,412,1,right,right,08-31-2017,10:20:01
14007,real,21,incongruent,386,1,left,left,08-31-2017,10:20:01
14007,real,22,congruent,600,1,left,left,08-31-2017,10:20:01
14007,real,23,congruent,758,1,right,right,08-31-2017,10:20:01
14007,real,24,congruent,348,1,left,left,08-31-2017,10:20:01
14007,real,25,incongruent,1031,1,left,left,08-31-2017,10:20:01
14007,real,26,congruent,448,1,right,right,08-31-2017,10:20:01
14007,real,27,congruent,376,1,left,left,08-31-2017,10:20:01
14007,real,28,congruent,465,1,left,left,08-31-2017,10:20:01
14007,real,29,incongruent,466,1,right,right,08-31-2017,10:20:01
14007,real,30,incongruent,496,1,right,right,08-31-2017,10:20:01
14007,real,31,incongruent,435,1,left,left,08-31-2017,10:20:01
14007,real,32,congruent,614,1,right,right,08-31-2017,10:20:01
14007,real,33,congruent,617,1,right,right,08-31-2017,10:20:01
14007,real,34,congruent,503,1,left,left,08-31-2017,10:20:01
14007,real,35,incongruent,509,1,right,right,08-31-2017,10:20:01
14007,real,36,congruent,739,1,left,left,08-31-2017,10:20:01
14007,real,37,incongruent,599,1,left,left,08-31-2017,10:20:01
14007,real,38,congruent,394,1,left,left,08-31-2017,10:20:01
14007,real,39,incongruent,528,1,right,right,08-31-2017,10:20:01
14007,real,40,congruent,409,1,right,right,08-31-2017,10:20:01
14007,real,41,congruent,415,1,right,right,08-31-2017,10:20:01
14007,real,42,incongruent,383,0,left,right,08-31-2017,10:20:01
14007,real,43,congruent,461,1,left,left,08-31-2017,10:20:01
14007,real,44,congruent,432,1,left,left,08-31-2017,10:20:01
14007,real,45,congruent,508,1,left,left,08-31-2017,10:20:01
14007,real,46,congruent,393,1,right,right,08-31-2017,10:20:01
14007,real,47,incongruent,530,1,right,right,08-31-2017,10:20:01
14007,real,48,congruent,507,1,right,right,08-31-2017,10:20:01
14007,real,49,congruent,446,1,right,right,08-31-2017,10:20:01
14007,real,50,congruent,462,1,left,left,08-31-2017,10:20:01
14007,real,51,congruent,543,1,left,left,08-31-2017,10:20:01
14007,real,52,incongruent,485,1,left,left,08-31-2017,10:20:01
14007,real,53,incongruent,480,1,left,left,08-31-2017,10:20:01
14007,real,54,congruent,435,1,right,right,08-31-2017,10:20:01
14007,real,55,congruent,543,1,left,left,08-31-2017,10:20:01
14007,real,56,congruent,386,1,left,left,08-31-2017,10:20:01
14007,real,57,congruent,349,1,left,left,08-31-2017,10:20:01
14007,real,58,congruent,318,0,left,right,08-31-2017,10:20:01
14007,real,59,congruent,470,1,left,left,08-31-2017,10:20:01
14007,real,60,congruent,495,0,left,right,08-31-2017,10:20:01
14007,real,61,congruent,845,1,right,right,08-31-2017,10:20:01
14007,real,62,congruent,469,1,right,right,08-31-2017,10:20:01
14007,real,63,incongruent,427,0,left,right,08-31-2017,10:20:01
14007,real,64,incongruent,729,1,right,right,08-31-2017,10:20:01
14007,real,65,congruent,463,1,left,left,08-31-2017,10:20:01
14007,real,66,incongruent,616,1,left,left,08-31-2017,10:20:01
14007,real,67,incongruent,536,1,left,left,08-31-2017,10:20:01
14007,real,68,congruent,577,1,right,right,08-31-2017,10:20:01
14007,real,69,congruent,647,1,left,left,08-31-2017,10:20:01
14007,real,70,incongruent,565,1,left,left,08-31-2017,10:20:01
14007,real,71,congruent,664,1,right,right,08-31-2017,10:20:01
14007,real,72,incongruent,649,1,right,right,08-31-2017,10:20:01
14007,real,73,congruent,1051,1,right,right,08-31-2017,10:20:01
14007,real,74,congruent,595,1,right,right,08-31-2017,10:20:01
14007,real,75,congruent,468,1,left,left,08-31-2017,10:20:01
14007,real,76,incongruent,538,1,left,left,08-31-2017,10:20:01
14007,real,77,congruent,450,1,right,right,08-31-2017,10:20:01
14007,real,78,congruent,424,1,right,right,08-31-2017,10:20:01
14007,real,79,congruent,345,1,right,right,08-31-2017,10:20:01
14007,real,80,incongruent,433,1,left,left,08-31-2017,10:20:01
14007,real,81,incongruent,634,1,right,right,08-31-2017,10:20:01
14007,real,82,congruent,475,1,right,right,08-31-2017,10:20:01
14007,real,83,congruent,595,1,left,left,08-31-2017,10:20:01
14007,real,84,congruent,510,1,left,left,08-31-2017,10:20:01
14007,real,85,congruent,420,1,left,left,08-31-2017,10:20:01
14007,real,86,incongruent,568,1,right,right,08-31-2017,10:20:01
14007,real,87,incongruent,461,1,left,left,08-31-2017,10:20:01
14007,real,88,congruent,462,1,right,right,08-31-2017,10:20:01
14007,real,89,incongruent,457,1,left,left,08-31-2017,10:20:01
14007,real,90,congruent,689,1,left,left,08-31-2017,10:20:01
14007,real,91,congruent,404,1,left,left,08-31-2017,10:20:01
14007,real,92,congruent,546,1,right,right,08-31-2017,10:20:01
14007,real,93,congruent,493,1,right,right,08-31-2017,10:20:01
14007,real,94,incongruent,446,1,left,left,08-31-2017,10:20:01
14007,real,95,congruent,393,1,left,left,08-31-2017,10:20:01
14007,real,96,incongruent,572,1,right,right,08-31-2017,10:20:01
14007,real,97,congruent,461,1,left,left,08-31-2017,10:20:01
14007,real,98,congruent,451,1,left,left,08-31-2017,10:20:01
14007,real,99,congruent,475,1,left,left,08-31-2017,10:20:01
14007,real,100,congruent,393,1,left,left,08-31-2017,10:20:01
14007,real,101,congruent,412,1,right,right,08-31-2017,10:20:01
14007,real,102,incongruent,535,0,left,right,08-31-2017,10:20:01
14007,real,103,congruent,563,1,right,right,08-31-2017,10:20:01
14007,real,104,incongruent,985,1,right,right,08-31-2017,10:20:01
14007,real,105,incongruent,487,1,left,left,08-31-2017,10:20:01
14007,real,106,congruent,509,1,left,left,08-31-2017,10:20:01
14007,real,107,congruent,485,1,right,right,08-31-2017,10:20:01
14007,real,108,incongruent,606,1,right,right,08-31-2017,10:20:01
14007,real,109,congruent,759,1,left,left,08-31-2017,10:20:01
14007,real,110,congruent,424,1,right,right,08-31-2017,10:20:01
14007,real,111,incongruent,429,1,right,right,08-31-2017,10:20:01
14007,real,112,congruent,403,1,right,right,08-31-2017,10:20:01
14007,real,113,congruent,388,1,right,right,08-31-2017,10:20:01
14007,real,114,incongruent,474,1,left,left,08-31-2017,10:20:01
14007,real,115,congruent,685,1,right,right,08-31-2017,10:20:01
14007,real,116,congruent,755,1,left,left,08-31-2017,10:20:01
14007,real,117,incongruent,841,1,left,left,08-31-2017,10:20:01
14007,real,118,congruent,378,1,left,left,08-31-2017,10:20:01
14007,real,119,congruent,703,1,right,right,08-31-2017,10:20:01
14007,real,120,congruent,1493,1,right,right,08-31-2017,10:20:01
14007,real,121,congruent,436,1,right,right,08-31-2017,10:20:01
14007,real,122,congruent,703,1,left,left,08-31-2017,10:20:01
14007,real,123,incongruent,866,1,left,left,08-31-2017,10:20:01
14007,real,124,congruent,592,1,right,right,08-31-2017,10:20:01
14007,real,125,incongruent,1251,0,left,right,08-31-2017,10:20:01
14007,real,126,congruent,764,1,left,left,08-31-2017,10:20:01
14007,real,127,incongruent,538,1,right,right,08-31-2017,10:20:01
14007,real,128,incongruent,760,1,right,right,08-31-2017,10:20:01
14007,real,129,congruent,497,1,left,left,08-31-2017,10:20:01
14007,real,130,congruent,631,1,right,right,08-31-2017,10:20:01
14007,real,131,incongruent,405,0,left,right,08-31-2017,10:20:01
14007,real,132,congruent,530,1,right,right,08-31-2017,10:20:01
14007,real,133,congruent,363,1,left,left,08-31-2017,10:20:01
14007,real,134,incongruent,529,1,right,right,08-31-2017,10:20:01
14007,real,135,congruent,660,1,right,right,08-31-2017,10:20:01
14007,real,136,congruent,474,1,left,left,08-31-2017,10:20:01
14007,real,137,congruent,419,1,left,left,08-31-2017,10:20:01
14007,real,138,congruent,499,1,left,left,08-31-2017,10:20:01
14007,real,139,incongruent,553,1,left,left,08-31-2017,10:20:01
14007,real,140,incongruent,991,0,right,left,08-31-2017,10:20:01
14007,real,141,congruent,587,1,right,right,08-31-2017,10:20:01
14007,real,142,congruent,435,1,left,left,08-31-2017,10:20:01
14007,real,143,congruent,452,1,left,left,08-31-2017,10:20:01
14007,real,144,incongruent,532,1,left,left,08-31-2017,10:20:01
14008,practice,1,congruent,829,1,left,left,08-31-2017,10:23:42
14008,practice,2,incongruent,1059,1,left,left,08-31-2017,10:23:42
14008,practice,3,incongruent,618,1,left,left,08-31-2017,10:23:42
14008,practice,4,congruent,774,1,left,left,08-31-2017,10:23:42
14008,practice,5,incongruent,780,1,right,right,08-31-2017,10:23:42
14008,practice,6,incongruent,696,1,right,right,08-31-2017,10:23:42
14008,practice,7,incongruent,644,1,left,left,08-31-2017,10:23:42
14008,practice,8,congruent,549,1,right,right,08-31-2017,10:23:42
14008,practice,9,incongruent,648,1,right,right,08-31-2017,10:23:42
14008,practice,10,congruent,537,1,right,right,08-31-2017,10:23:42
14008,practice,11,congruent,541,1,right,right,08-31-2017,10:23:42
14008,practice,12,congruent,582,1,left,left,08-31-2017,10:23:42
14008,real,1,incongruent,624,1,left,left,08-31-2017,10:23:42
14008,real,2,incongruent,524,1,left,left,08-31-2017,10:23:42
14008,real,3,congruent,602,1,left,left,08-31-2017,10:23:42
14008,real,4,incongruent,640,1,right,right,08-31-2017,10:23:42
14008,real,5,congruent,624,1,right,right,08-31-2017,10:23:42
14008,real,6,congruent,662,1,right,right,08-31-2017,10:23:42
14008,real,7,congruent,460,1,right,right,08-31-2017,10:23:42
14008,real,8,incongruent,485,1,left,left,08-31-2017,10:23:42
14008,real,9,congruent,552,1,left,left,08-31-2017,10:23:42
14008,real,10,congruent,408,1,right,right,08-31-2017,10:23:42
14008,real,11,congruent,404,1,left,left,08-31-2017,10:23:42
14008,real,12,congruent,412,1,left,left,08-31-2017,10:23:42
14008,real,13,congruent,541,1,right,right,08-31-2017,10:23:42
14008,real,14,congruent,429,1,left,left,08-31-2017,10:23:42
14008,real,15,incongruent,534,1,right,right,08-31-2017,10:23:42
14008,real,16,incongruent,518,1,right,right,08-31-2017,10:23:42
14008,real,17,congruent,604,1,right,right,08-31-2017,10:23:42
14008,real,18,incongruent,472,1,left,left,08-31-2017,10:23:42
14008,real,19,incongruent,592,1,left,left,08-31-2017,10:23:42
14008,real,20,congruent,417,1,left,left,08-31-2017,10:23:42
14008,real,21,incongruent,543,1,right,right,08-31-2017,10:23:42
14008,real,22,congruent,517,1,left,left,08-31-2017,10:23:42
14008,real,23,congruent,496,1,right,right,08-31-2017,10:23:42
14008,real,24,incongruent,576,1,right,right,08-31-2017,10:23:42
14008,real,25,congruent,436,1,left,left,08-31-2017,10:23:42
14008,real,26,incongruent,514,1,right,right,08-31-2017,10:23:42
14008,real,27,congruent,421,1,right,right,08-31-2017,10:23:42
14008,real,28,congruent,421,1,left,left,08-31-2017,10:23:42
14008,real,29,congruent,363,1,right,right,08-31-2017,10:23:42
14008,real,30,congruent,377,1,right,right,08-31-2017,10:23:42
14008,real,31,congruent,415,1,left,left,08-31-2017,10:23:42
14008,real,32,congruent,509,1,left,left,08-31-2017,10:23:42
14008,real,33,congruent,411,1,left,left,08-31-2017,10:23:42
14008,real,34,incongruent,539,0,right,left,08-31-2017,10:23:42
14008,real,35,congruent,630,1,right,right,08-31-2017,10:23:42
14008,real,36,congruent,711,1,right,right,08-31-2017,10:23:42
14008,real,37,congruent,493,1,right,right,08-31-2017,10:23:42
14008,real,38,congruent,504,1,left,left,08-31-2017,10:23:42
14008,real,39,congruent,448,1,left,left,08-31-2017,10:23:42
14008,real,40,congruent,500,1,left,left,08-31-2017,10:23:42
14008,real,41,congruent,410,1,right,right,08-31-2017,10:23:42
14008,real,42,incongruent,618,1,left,left,08-31-2017,10:23:42
14008,real,43,incongruent,461,1,right,right,08-31-2017,10:23:42
14008,real,44,congruent,542,1,left,left,08-31-2017,10:23:42
14008,real,45,congruent,452,1,left,left,08-31-2017,10:23:42
14008,real,46,congruent,442,1,right,right,08-31-2017,10:23:42
14008,real,47,congruent,538,1,left,left,08-31-2017,10:23:42
14008,real,48,incongruent,512,1,right,right,08-31-2017,10:23:42
14008,real,49,congruent,539,1,right,right,08-31-2017,10:23:42
14008,real,50,incongruent,452,1,left,left,08-31-2017,10:23:42
14008,real,51,incongruent,447,1,left,left,08-31-2017,10:23:42
14008,real,52,congruent,584,1,right,right,08-31-2017,10:23:42
14008,real,53,congruent,408,1,right,right,08-31-2017,10:23:42
14008,real,54,incongruent,532,1,right,right,08-31-2017,10:23:42
14008,real,55,congruent,466,1,left,left,08-31-2017,10:23:42
14008,real,56,congruent,431,1,right,right,08-31-2017,10:23:42
14008,real,57,incongruent,565,1,right,right,08-31-2017,10:23:42
14008,real,58,congruent,542,1,left,left,08-31-2017,10:23:42
14008,real,59,congruent,444,1,right,right,08-31-2017,10:23:42
14008,real,60,congruent,516,1,right,right,08-31-2017,10:23:42
14008,real,61,congruent,512,1,left,left,08-31-2017,10:23:42
14008,real,62,congruent,523,1,left,left,08-31-2017,10:23:42
14008,real,63,incongruent,604,1,left,left,08-31-2017,10:23:42
14008,real,64,incongruent,500,1,right,right,08-31-2017,10:23:42
14008,real,65,congruent,485,1,left,left,08-31-2017,10:23:42
14008,real,66,congruent,565,1,right,right,08-31-2017,10:23:42
14008,real,67,congruent,475,1,right,right,08-31-2017,10:23:42
14008,real,68,congruent,593,1,right,right,08-31-2017,10:23:42
14008,real,69,congruent,428,1,left,left,08-31-2017,10:23:42
14008,real,70,incongruent,498,1,left,left,08-31-2017,10:23:42
14008,real,71,incongruent,504,1,left,left,08-31-2017,10:23:42
14008,real,72,incongruent,444,1,right,right,08-31-2017,10:23:42
14008,real,73,incongruent,676,1,left,left,08-31-2017,10:23:42
14008,real,74,incongruent,922,1,right,right,08-31-2017,10:23:42
14008,real,75,congruent,480,1,left,left,08-31-2017,10:23:42
14008,real,76,congruent,526,1,right,right,08-31-2017,10:23:42
14008,real,77,congruent,804,1,right,right,08-31-2017,10:23:42
14008,real,78,incongruent,687,1,left,left,08-31-2017,10:23:42
14008,real,79,congruent,493,1,right,right,08-31-2017,10:23:42
14008,real,80,congruent,531,1,left,left,08-31-2017,10:23:42
14008,real,81,congruent,414,1,right,right,08-31-2017,10:23:42
14008,real,82,congruent,410,1,left,left,08-31-2017,10:23:42
14008,real,83,congruent,442,1,right,right,08-31-2017,10:23:42
14008,real,84,congruent,389,1,left,left,08-31-2017,10:23:42
14008,real,85,congruent,419,1,right,right,08-31-2017,10:23:42
14008,real,86,incongruent,380,0,left,right,08-31-2017,10:23:42
14008,real,87,congruent,482,1,right,right,08-31-2017,10:23:42
14008,real,88,congruent,522,1,right,right,08-31-2017,10:23:42
14008,real,89,congruent,408,1,left,left,08-31-2017,10:23:42
14008,real,90,incongruent,507,1,left,left,08-31-2017,10:23:42
14008,real,91,incongruent,623,1,left,left,08-31-2017,10:23:42
14008,real,92,incongruent,543,1,right,right,08-31-2017,10:23:42
14008,real,93,congruent,840,1,right,right,08-31-2017,10:23:42
14008,real,94,congruent,1137,1,left,left,08-31-2017,10:23:42
14008,real,95,incongruent,556,1,right,right,08-31-2017,10:23:42
14008,real,96,incongruent,514,1,right,right,08-31-2017,10:23:42
14008,real,97,congruent,544,1,left,left,08-31-2017,10:23:42
14008,real,98,congruent,718,1,left,left,08-31-2017,10:23:42
14008,real,99,congruent,721,1,right,right,08-31-2017,10:23:42
14008,real,100,congruent,431,1,left,left,08-31-2017,10:23:42
14008,real,101,congruent,504,1,left,left,08-31-2017,10:23:42
14008,real,102,congruent,376,1,left,left,08-31-2017,10:23:42
14008,real,103,congruent,622,1,right,right,08-31-2017,10:23:42
14008,real,104,congruent,505,1,right,right,08-31-2017,10:23:42
14008,real,105,incongruent,1084,1,left,left,08-31-2017,10:23:42
14008,real,106,incongruent,539,1,left,left,08-31-2017,10:23:42
14008,real,107,congruent,504,1,left,left,08-31-2017,10:23:42
14008,real,108,incongruent,756,1,right,right,08-31-2017,10:23:42
14008,real,109,congruent,677,1,left,left,08-31-2017,10:23:42
14008,real,110,congruent,467,1,left,left,08-31-2017,10:23:42
14008,real,111,congruent,433,1,left,left,08-31-2017,10:23:42
14008,real,112,incongruent,519,1,right,right,08-31-2017,10:23:42
14008,real,113,incongruent,543,1,right,right,08-31-2017,10:23:42
14008,real,114,congruent,512,1,left,left,08-31-2017,10:23:42
14008,real,115,congruent,438,1,right,right,08-31-2017,10:23:42
14008,real,116,incongruent,617,1,left,left,08-31-2017,10:23:42
14008,real,117,incongruent,548,1,right,right,08-31-2017,10:23:42
14008,real,118,congruent,477,1,right,right,08-31-2017,10:23:42
14008,real,119,congruent,424,1,right,right,08-31-2017,10:23:42
14008,real,120,congruent,611,1,left,left,08-31-2017,10:23:42
14008,real,121,incongruent,575,1,left,left,08-31-2017,10:23:42
14008,real,122,congruent,501,1,right,right,08-31-2017,10:23:42
14008,real,123,congruent,424,1,right,right,08-31-2017,10:23:42
14008,real,124,congruent,446,1,right,right,08-31-2017,10:23:42
14008,real,125,congruent,521,1,left,left,08-31-2017,10:23:42
14008,real,126,congruent,506,1,left,left,08-31-2017,10:23:42
14008,real,127,incongruent,685,1,right,right,08-31-2017,10:23:42
14008,real,128,congruent,491,1,left,left,08-31-2017,10:23:42
14008,real,129,incongruent,619,1,right,right,08-31-2017,10:23:42
14008,real,130,incongruent,718,1,left,left,08-31-2017,10:23:42
14008,real,131,congruent,559,1,right,right,08-31-2017,10:23:42
14008,real,132,congruent,524,1,right,right,08-31-2017,10:23:42
14008,real,133,congruent,1016,1,left,left,08-31-2017,10:23:42
14008,real,134,incongruent,1048,1,left,left,08-31-2017,10:23:42
14008,real,135,incongruent,1156,1,left,left,08-31-2017,10:23:42
14008,real,136,congruent,436,1,right,right,08-31-2017,10:23:42
14008,real,137,congruent,490,1,right,right,08-31-2017,10:23:42
14008,real,138,incongruent,478,1,right,right,08-31-2017,10:23:42
14008,real,139,congruent,430,1,left,left,08-31-2017,10:23:42
14008,real,140,congruent,577,1,right,right,08-31-2017,10:23:42
14008,real,141,congruent,666,1,right,right,08-31-2017,10:23:42
14008,real,142,congruent,496,1,left,left,08-31-2017,10:23:42
14008,real,143,congruent,886,1,left,left,08-31-2017,10:23:42
14008,real,144,incongruent,692,1,left,left,08-31-2017,10:23:42
14009,practice,1,incongruent,1195,1,right,right,08-31-2017,11:26:26
14009,practice,2,incongruent,687,1,left,left,08-31-2017,11:26:26
14009,practice,3,incongruent,632,1,right,right,08-31-2017,11:26:26
14009,practice,4,incongruent,790,1,left,left,08-31-2017,11:26:26
14009,practice,5,incongruent,701,1,left,left,08-31-2017,11:26:26
14009,practice,6,congruent,603,1,left,left,08-31-2017,11:26:26
14009,practice,7,congruent,500,1,left,left,08-31-2017,11:26:26
14009,practice,8,congruent,723,1,left,left,08-31-2017,11:26:26
14009,practice,9,congruent,774,1,right,right,08-31-2017,11:26:26
14009,practice,10,congruent,666,1,right,right,08-31-2017,11:26:26
14009,practice,11,congruent,665,1,right,right,08-31-2017,11:26:26
14009,practice,12,incongruent,650,1,right,right,08-31-2017,11:26:26
14009,real,1,congruent,702,1,right,right,08-31-2017,11:26:26
14009,real,2,incongruent,545,1,left,left,08-31-2017,11:26:26
14009,real,3,congruent,653,1,left,left,08-31-2017,11:26:26
14009,real,4,incongruent,568,1,right,right,08-31-2017,11:26:26
14009,real,5,incongruent,523,1,right,right,08-31-2017,11:26:26
14009,real,6,congruent,447,1,right,right,08-31-2017,11:26:26
14009,real,7,congruent,463,1,left,left,08-31-2017,11:26:26
14009,real,8,incongruent,586,1,left,left,08-31-2017,11:26:26
14009,real,9,incongruent,494,1,left,left,08-31-2017,11:26:26
14009,real,10,congruent,441,1,left,left,08-31-2017,11:26:26
14009,real,11,incongruent,585,1,right,right,08-31-2017,11:26:26
14009,real,12,congruent,666,1,right,right,08-31-2017,11:26:26
14009,real,13,congruent,456,1,right,right,08-31-2017,11:26:26
14009,real,14,congruent,352,1,right,right,08-31-2017,11:26:26
14009,real,15,congruent,422,1,right,right,08-31-2017,11:26:26
14009,real,16,congruent,465,1,left,left,08-31-2017,11:26:26
14009,real,17,congruent,485,1,left,left,08-31-2017,11:26:26
14009,real,18,congruent,435,1,left,left,08-31-2017,11:26:26
14009,real,19,incongruent,432,0,right,left,08-31-2017,11:26:26
14009,real,20,incongruent,598,1,right,right,08-31-2017,11:26:26
14009,real,21,congruent,575,1,left,left,08-31-2017,11:26:26
14009,real,22,congruent,448,1,left,left,08-31-2017,11:26:26
14009,real,23,incongruent,605,1,left,left,08-31-2017,11:26:26
14009,real,24,congruent,446,1,left,left,08-31-2017,11:26:26
14009,real,25,congruent,503,1,right,right,08-31-2017,11:26:26
14009,real,26,congruent,538,1,left,left,08-31-2017,11:26:26
14009,real,27,congruent,475,1,right,right,08-31-2017,11:26:26
14009,real,28,congruent,347,1,left,left,08-31-2017,11:26:26
14009,real,29,incongruent,444,0,left,right,08-31-2017,11:26:26
14009,real,30,congruent,735,1,right,right,08-31-2017,11:26:26
14009,real,31,congruent,453,1,left,left,08-31-2017,11:26:26
14009,real,32,incongruent,485,1,left,left,08-31-2017,11:26:26
14009,real,33,incongruent,539,1,right,right,08-31-2017,11:26:26
14009,real,34,congruent,511,1,right,right,08-31-2017,11:26:26
14009,real,35,congruent,386,1,right,right,08-31-2017,11:26:26
14009,real,36,congruent,298,1,right,right,08-31-2017,11:26:26
14009,real,37,congruent,650,1,left,left,08-31-2017,11:26:26
14009,real,38,congruent,533,1,right,right,08-31-2017,11:26:26
14009,real,39,incongruent,478,1,right,right,08-31-2017,11:26:26
14009,real,40,incongruent,518,1,left,left,08-31-2017,11:26:26
14009,real,41,congruent,476,1,right,right,08-31-2017,11:26:26
14009,real,42,congruent,458,1,right,right,08-31-2017,11:26:26
14009,real,43,incongruent,560,1,left,left,08-31-2017,11:26:26
14009,real,44,congruent,411,1,right,right,08-31-2017,11:26:26
14009,real,45,congruent,420,1,right,right,08-31-2017,11:26:26
14009,real,46,incongruent,554,1,left,left,08-31-2017,11:26:26
14009,real,47,congruent,421,1,left,left,08-31-2017,11:26:26
14009,real,48,incongruent,606,1,right,right,08-31-2017,11:26:26
14009,real,49,congruent,422,1,left,left,08-31-2017,11:26:26
14009,real,50,congruent,545,1,left,left,08-31-2017,11:26:26
14009,real,51,congruent,389,1,right,right,08-31-2017,11:26:26
14009,real,52,congruent,523,1,right,right,08-31-2017,11:26:26
14009,real,53,congruent,462,1,right,right,08-31-2017,11:26:26
14009,real,54,congruent,425,1,right,right,08-31-2017,11:26:26
14009,real,55,congruent,404,0,right,left,08-31-2017,11:26:26
14009,real,56,congruent,680,1,left,left,08-31-2017,11:26:26
14009,real,57,incongruent,688,1,right,right,08-31-2017,11:26:26
14009,real,58,incongruent,617,1,left,left,08-31-2017,11:26:26
14009,real,59,congruent,383,1,right,right,08-31-2017,11:26:26
14009,real,60,congruent,421,1,left,left,08-31-2017,11:26:26
14009,real,61,incongruent,613,1,left,left,08-31-2017,11:26:26
14009,real,62,incongruent,518,1,right,right,08-31-2017,11:26:26
14009,real,63,incongruent,572,1,right,right,08-31-2017,11:26:26
14009,real,64,congruent,596,1,left,left,08-31-2017,11:26:26
14009,real,65,congruent,485,1,left,left,08-31-2017,11:26:26
14009,real,66,congruent,539,1,right,right,08-31-2017,11:26:26
14009,real,67,congruent,449,1,right,right,08-31-2017,11:26:26
14009,real,68,incongruent,511,1,right,right,08-31-2017,11:26:26
14009,real,69,incongruent,548,1,left,left,08-31-2017,11:26:26
14009,real,70,congruent,544,1,left,left,08-31-2017,11:26:26
14009,real,71,congruent,419,1,left,left,08-31-2017,11:26:26
14009,real,72,congruent,393,1,left,left,08-31-2017,11:26:26
14009,real,73,congruent,547,1,right,right,08-31-2017,11:26:26
14009,real,74,congruent,529,1,right,right,08-31-2017,11:26:26
14009,real,75,incongruent,607,1,right,right,08-31-2017,11:26:26
14009,real,76,congruent,399,1,left,left,08-31-2017,11:26:26
14009,real,77,incongruent,757,1,right,right,08-31-2017,11:26:26
14009,real,78,incongruent,590,1,left,left,08-31-2017,11:26:26
14009,real,79,congruent,513,1,right,right,08-31-2017,11:26:26
14009,real,80,congruent,735,1,left,left,08-31-2017,11:26:26
14009,real,81,congruent,608,1,left,left,08-31-2017,11:26:26
14009,real,82,incongruent,571,1,left,left,08-31-2017,11:26:26
14009,real,83,congruent,628,1,left,left,08-31-2017,11:26:26
14009,real,84,congruent,548,1,right,right,08-31-2017,11:26:26
14009,real,85,incongruent,639,1,left,left,08-31-2017,11:26:26
14009,real,86,congruent,448,1,left,left,08-31-2017,11:26:26
14009,real,87,congruent,486,1,left,left,08-31-2017,11:26:26
14009,real,88,incongruent,703,1,left,left,08-31-2017,11:26:26
14009,real,89,incongruent,562,1,right,right,08-31-2017,11:26:26
14009,real,90,congruent,488,1,right,right,08-31-2017,11:26:26
14009,real,91,incongruent,382,1,right,right,08-31-2017,11:26:26
14009,real,92,congruent,516,1,left,left,08-31-2017,11:26:26
14009,real,93,congruent,455,1,right,right,08-31-2017,11:26:26
14009,real,94,congruent,431,1,left,left,08-31-2017,11:26:26
14009,real,95,incongruent,472,1,right,right,08-31-2017,11:26:26
14009,real,96,congruent,430,1,right,right,08-31-2017,11:26:26
14009,real,97,incongruent,468,1,left,left,08-31-2017,11:26:26
14009,real,98,congruent,420,1,left,left,08-31-2017,11:26:26
14009,real,99,congruent,389,1,left,left,08-31-2017,11:26:26
14009,real,100,incongruent,411,1,left,left,08-31-2017,11:26:26
14009,real,101,congruent,456,1,right,right,08-31-2017,11:26:26
14009,real,102,congruent,529,1,left,left,08-31-2017,11:26:26
14009,real,103,congruent,554,1,right,right,08-31-2017,11:26:26
14009,real,104,incongruent,672,1,right,right,08-31-2017,11:26:26
14009,real,105,congruent,448,1,right,right,08-31-2017,11:26:26
14009,real,106,congruent,577,1,right,right,08-31-2017,11:26:26
14009,real,107,congruent,495,1,right,right,08-31-2017,11:26:26
14009,real,108,congruent,663,1,left,left,08-31-2017,11:26:26
14009,real,109,incongruent,663,1,left,left,08-31-2017,11:26:26
14009,real,110,incongruent,520,1,right,right,08-31-2017,11:26:26
14009,real,111,congruent,443,1,left,left,08-31-2017,11:26:26
14009,real,112,incongruent,462,1,right,right,08-31-2017,11:26:26
14009,real,113,congruent,522,1,left,left,08-31-2017,11:26:26
14009,real,114,congruent,509,1,left,left,08-31-2017,11:26:26
14009,real,115,congruent,400,1,right,right,08-31-2017,11:26:26
14009,real,116,congruent,473,1,right,right,08-31-2017,11:26:26
14009,real,117,incongruent,590,1,right,right,08-31-2017,11:26:26
14009,real,118,congruent,530,1,left,left,08-31-2017,11:26:26
14009,real,119,congruent,394,1,right,right,08-31-2017,11:26:26
14009,real,120,congruent,467,1,right,right,08-31-2017,11:26:26
14009,real,121,incongruent,524,0,left,right,08-31-2017,11:26:26
14009,real,122,incongruent,407,1,right,right,08-31-2017,11:26:26
14009,real,123,incongruent,738,1,left,left,08-31-2017,11:26:26
14009,real,124,congruent,645,1,left,left,08-31-2017,11:26:26
14009,real,125,congruent,542,1,right,right,08-31-2017,11:26:26
14009,real,126,congruent,684,1,right,right,08-31-2017,11:26:26
14009,real,127,congruent,898,1,left,left,08-31-2017,11:26:26
14009,real,128,congruent,608,1,left,left,08-31-2017,11:26:26
14009,real,129,incongruent,625,0,right,left,08-31-2017,11:26:26
14009,real,130,congruent,519,1,left,left,08-31-2017,11:26:26
14009,real,131,congruent,498,1,left,left,08-31-2017,11:26:26
14009,real,132,congruent,530,1,right,right,08-31-2017,11:26:26
14009,real,133,congruent,622,1,left,left,08-31-2017,11:26:26
14009,real,134,congruent,572,1,right,right,08-31-2017,11:26:26
14009,real,135,congruent,911,1,left,left,08-31-2017,11:26:26
14009,real,136,incongruent,650,1,left,left,08-31-2017,11:26:26
14009,real,137,congruent,512,1,right,right,08-31-2017,11:26:26
14009,real,138,incongruent,686,0,left,right,08-31-2017,11:26:26
14009,real,139,congruent,575,1,right,right,08-31-2017,11:26:26
14009,real,140,incongruent,666,1,left,left,08-31-2017,11:26:26
14009,real,141,congruent,587,1,left,left,08-31-2017,11:26:26
14009,real,142,congruent,649,1,right,right,08-31-2017,11:26:26
14009,real,143,incongruent,692,1,left,left,08-31-2017,11:26:26
14009,real,144,congruent,525,1,right,right,08-31-2017,11:26:26
14010,practice,1,incongruent,952,1,left,left,08-31-2017,12:24:25
14010,practice,2,congruent,777,1,right,right,08-31-2017,12:24:25
14010,practice,3,congruent,571,1,left,left,08-31-2017,12:24:25
14010,practice,4,congruent,697,1,right,right,08-31-2017,12:24:25
14010,practice,5,congruent,917,1,left,left,08-31-2017,12:24:25
14010,practice,6,incongruent,934,1,left,left,08-31-2017,12:24:25
14010,practice,7,incongruent,647,1,right,right,08-31-2017,12:24:25
14010,practice,8,congruent,976,1,left,left,08-31-2017,12:24:25
14010,practice,9,incongruent,873,1,right,right,08-31-2017,12:24:25
14010,practice,10,incongruent,799,1,right,right,08-31-2017,12:24:25
14010,practice,11,congruent,640,1,right,right,08-31-2017,12:24:25
14010,practice,12,incongruent,729,1,left,left,08-31-2017,12:24:25
14010,real,1,congruent,1258,1,right,right,08-31-2017,12:24:25
14010,real,2,congruent,845,1,left,left,08-31-2017,12:24:25
14010,real,3,congruent,563,1,left,left,08-31-2017,12:24:25
14010,real,4,congruent,535,1,right,right,08-31-2017,12:24:25
14010,real,5,congruent,567,1,left,left,08-31-2017,12:24:25
14010,real,6,incongruent,749,1,right,right,08-31-2017,12:24:25
14010,real,7,congruent,558,1,left,left,08-31-2017,12:24:25
14010,real,8,congruent,628,1,left,left,08-31-2017,12:24:25
14010,real,9,congruent,607,1,left,left,08-31-2017,12:24:25
14010,real,10,congruent,960,1,right,right,08-31-2017,12:24:25
14010,real,11,incongruent,1230,1,right,right,08-31-2017,12:24:25
14010,real,12,incongruent,700,1,right,right,08-31-2017,12:24:25
14010,real,13,congruent,1079,1,right,right,08-31-2017,12:24:25
14010,real,14,congruent,611,1,left,left,08-31-2017,12:24:25
14010,real,15,congruent,995,1,left,left,08-31-2017,12:24:25
14010,real,16,incongruent,1409,1,left,left,08-31-2017,12:24:25
14010,real,17,incongruent,1032,1,left,left,08-31-2017,12:24:25
14010,real,18,congruent,1203,1,right,right,08-31-2017,12:24:25
14010,real,19,congruent,1404,1,right,right,08-31-2017,12:24:25
14010,real,20,congruent,751,1,left,left,08-31-2017,12:24:25
14010,real,21,congruent,597,1,right,right,08-31-2017,12:24:25
14010,real,22,incongruent,614,1,left,left,08-31-2017,12:24:25
14010,real,23,incongruent,804,1,right,right,08-31-2017,12:24:25
14010,real,24,congruent,882,1,right,right,08-31-2017,12:24:25
14010,real,25,congruent,667,1,right,right,08-31-2017,12:24:25
14010,real,26,incongruent,734,1,left,left,08-31-2017,12:24:25
14010,real,27,congruent,721,1,right,right,08-31-2017,12:24:25
14010,real,28,incongruent,778,1,right,right,08-31-2017,12:24:25
14010,real,29,incongruent,752,1,left,left,08-31-2017,12:24:25
14010,real,30,congruent,920,1,left,left,08-31-2017,12:24:25
14010,real,31,congruent,652,1,right,right,08-31-2017,12:24:25
14010,real,32,congruent,1325,1,left,left,08-31-2017,12:24:25
14010,real,33,congruent,821,1,left,left,08-31-2017,12:24:25
14010,real,34,incongruent,1139,1,left,left,08-31-2017,12:24:25
